GITM2 log file
## Inputs from UAM.in
# Resart= F
# Eddy coef:   100.000 Eddy P0:     0.010 Eddy P1:     0.005 Eddy Scaling:     1.000
# Statistical Models Only:  F Apex:  F
# EUV Data:  F
# AMIE: none           
none                                                                                                
# Solar Heating:  T Joule Heating:  F Auroral Heating:  F
# NO Cooling:  F O Cooling:  F
# Conduction:  T Turbulent Conduction:  F Updated Turbulent Conduction:  F
# Pressure Grad:  T Ion Drag:  F Neutral Drag:  T
# Viscosity:  T Coriolis:  T Gravity:  T
# Ion Chemistry:  F Ion Advection:  F Neutral Chemistry:  F
 
#START
   iStep yyyy mm dd hh mm ss  ms      dt min(T) max(T) mean(T) min(VV) max(VV) mean(VV) F107 F107A Bx By Bz Vx HPI
       2 2002 12 21 12  0 10 227 10.2274    166.44501    167.92452    167.38622    -19.38807     22.27214    -10.95483    150.0    150.0      0.0      0.0    -20.0    400.0      1.0
       3 2002 12 21 12  0 20 117  9.8905    163.83481    194.99450    167.66067    -25.00000     25.00000    -17.67955    150.0    150.0      0.0      0.0    -20.0    400.0      1.0
       4 2002 12 21 12  0 29 731  9.6136    160.47991    209.10627    167.71819    -25.00000     25.00000    -18.82400    150.0    150.0      0.0      0.0    -20.0    400.0      1.0
       5 2002 12 21 12  0 39 375  9.6437    157.35190    217.08239    167.71681    -25.00000     25.00000    -19.22775    150.0    150.0      0.0      0.0    -20.0    400.0      1.0
       6 2002 12 21 12  0 49  56  9.6812    154.53472    223.80643    167.71649    -25.00000     25.00000    -19.05169    150.0    150.0      0.0      0.0    -20.0    400.0      1.0
       7 2002 12 21 12  0 58 786  9.7301    151.87030    229.64766    167.69789    -25.00000     25.00000    -18.75227    150.0    150.0      0.0      0.0    -20.0    400.0      1.0
       8 2002 12 21 12  1  8 577  9.7913    149.78902    233.91776    167.65336    -25.00000     25.00000    -18.41559    150.0    150.0      0.0      0.0    -20.0    400.0      1.0
       9 2002 12 21 12  1 18 406  9.8292    148.05795    236.62786    167.59264    -25.00000     25.00000    -18.08928    150.0    150.0      0.0      0.0    -20.0    400.0      1.0
      10 2002 12 21 12  1 28 286  9.8798    146.51097    239.56762    167.52688    -25.00000     25.00000    -17.81102    150.0    150.0      0.0      0.0    -20.0    400.0      1.0
      11 2002 12 21 12  1 38 238  9.9514    145.02470    241.59859    167.44974    -25.00000     25.00000    -17.59056    150.0    150.0      0.0      0.0    -20.0    400.0      1.0
      12 2002 12 21 12  1 48 233  9.9951    143.62659    243.41108    167.36037    -25.00000     25.00000    -17.44822    150.0    150.0      0.0      0.0    -20.0    400.0      1.0
      13 2002 12 21 12  1 58 252 10.0196    142.13506    244.52199    167.25291    -25.00000     25.00000    -17.27675    150.0    150.0      0.0      0.0    -20.0    400.0      1.0
      14 2002 12 21 12  2  8 315 10.0625    140.55607    245.59650    167.13430    -25.00000     25.00000    -17.17815    150.0    150.0      0.0      0.0    -20.0    400.0      1.0
      15 2002 12 21 12  2 18 406 10.0911    138.74061    246.34888    167.00760    -25.00000     25.00000    -17.08518    150.0    150.0      0.0      0.0    -20.0    400.0      1.0
      16 2002 12 21 12  2 28 517 10.1109    136.90318    246.99203    166.87493    -25.00000     25.00000    -16.92348    150.0    150.0      0.0      0.0    -20.0    400.0      1.0
      17 2002 12 21 12  2 38 648 10.1313    135.04384    247.81515    166.73840    -25.00000     25.00000    -16.77110    150.0    150.0      0.0      0.0    -20.0    400.0      1.0
      18 2002 12 21 12  2 48 811 10.1629    133.45919    248.69192    166.59742    -25.00000     25.00000    -16.57867    150.0    150.0      0.0      0.0    -20.0    400.0      1.0
      19 2002 12 21 12  2 58 990 10.1784    132.06094    249.47616    166.45208    -25.00000     25.00000    -16.33849    150.0    150.0      0.0      0.0    -20.0    400.0      1.0
      20 2002 12 21 12  3  9 173 10.1833    130.60956    250.19192    166.30113    -25.00000     25.00000    -16.12021    150.0    150.0      0.0      0.0    -20.0    400.0      1.0
      21 2002 12 21 12  3 19 368 10.1952    128.97035    250.86026    166.14523    -25.00000     25.00000    -15.88436    150.0    150.0      0.0      0.0    -20.0    400.0      1.0
      22 2002 12 21 12  3 29 593 10.2248    127.28883    251.46389    165.98275    -25.00000     25.00000    -15.65239    150.0    150.0      0.0      0.0    -20.0    400.0      1.0
      23 2002 12 21 12  3 39 831 10.2383    125.58436    251.98619    165.81451    -25.00000     25.00000    -15.44805    150.0    150.0      0.0      0.0    -20.0    400.0      1.0
      24 2002 12 21 12  3 50  95 10.2636    124.00007    252.43276    165.64011    -25.00000     25.00000    -15.24067    150.0    150.0      0.0      0.0    -20.0    400.0      1.0
      25 2002 12 21 12  4  0 401 10.3063    122.69244    252.80579    165.46266    -25.00000     25.00000    -15.04534    150.0    150.0      0.0      0.0    -20.0    400.0      1.0
      26 2002 12 21 12  4 10 737 10.3362    121.56201    253.12869    165.28510    -25.00000     25.00000    -14.92446    150.0    150.0      0.0      0.0    -20.0    400.0      1.0
      27 2002 12 21 12  4 21 101 10.3633    120.47538    253.42308    165.10732    -25.00000     25.00000    -14.81688    150.0    150.0      0.0      0.0    -20.0    400.0      1.0
      28 2002 12 21 12  4 31 469 10.3685    119.36707    253.69682    164.93037    -25.00000     25.00000    -14.71831    150.0    150.0      0.0      0.0    -20.0    400.0      1.0
      29 2002 12 21 12  4 41 845 10.3756    118.29306    253.94093    164.75382    -25.00000     25.00000    -14.65980    150.0    150.0      0.0      0.0    -20.0    400.0      1.0
      30 2002 12 21 12  4 52 244 10.3995    117.19345    254.10000    164.57692    -25.00000     25.00000    -14.57137    150.0    150.0      0.0      0.0    -20.0    400.0      1.0
      31 2002 12 21 12  5  2 675 10.4307    116.04991    254.18239    164.40025    -25.00000     25.00000    -14.50244    150.0    150.0      0.0      0.0    -20.0    400.0      1.0
      32 2002 12 21 12  5 13 122 10.4467    114.87814    254.23139    164.22511    -25.00000     25.00000    -14.46045    150.0    150.0      0.0      0.0    -20.0    400.0      1.0
      33 2002 12 21 12  5 23 591 10.4698    113.47966    254.31463    164.05072    -25.00000     25.00000    -14.38994    150.0    150.0      0.0      0.0    -20.0    400.0      1.0
      34 2002 12 21 12  5 34  83 10.4915    111.89920    254.47513    163.87607    -25.00000     25.00000    -14.38100    150.0    150.0      0.0      0.0    -20.0    400.0      1.0
      35 2002 12 21 12  5 44 582 10.4992    110.36408    254.71767    163.70102    -25.00000     25.00000    -14.31956    150.0    150.0      0.0      0.0    -20.0    400.0      1.0
      36 2002 12 21 12  5 55  83 10.5007    109.00441    255.01878    163.52624    -25.00000     25.00000    -14.22732    150.0    150.0      0.0      0.0    -20.0    400.0      1.0
      37 2002 12 21 12  6  5 585 10.5025    107.81140    255.35837    163.35100    -25.00000     25.00000    -14.11589    150.0    150.0      0.0      0.0    -20.0    400.0      1.0
      38 2002 12 21 12  6 16  84 10.4983    106.58961    255.71189    163.17492    -25.00000     25.00000    -13.97005    150.0    150.0      0.0      0.0    -20.0    400.0      1.0
      39 2002 12 21 12  6 26 575 10.4915    105.25530    256.08381    162.99707    -25.00000     25.00000    -13.82756    150.0    150.0      0.0      0.0    -20.0    400.0      1.0
      40 2002 12 21 12  6 37  59 10.4845    103.93130    256.45260    162.81739    -25.00000     25.00000    -13.68299    150.0    150.0      0.0      0.0    -20.0    400.0      1.0
      41 2002 12 21 12  6 47 537 10.4776    102.60076    256.81250    162.63652    -25.00000     25.00000    -13.53883    150.0    150.0      0.0      0.0    -20.0    400.0      1.0
      42 2002 12 21 12  6 58   8 10.4709    101.31996    257.19398    162.45374    -25.00000     25.00000    -13.37633    150.0    150.0      0.0      0.0    -20.0    400.0      1.0
      43 2002 12 21 12  7  8 472 10.4639    100.24209    257.42988    162.26846    -25.00000     25.00000    -13.22862    150.0    150.0      0.0      0.0    -20.0    400.0      1.0
      44 2002 12 21 12  7 18 931 10.4595     99.34424    257.49768    162.08346    -25.00000     25.00000    -13.07861    150.0    150.0      0.0      0.0    -20.0    400.0      1.0
      45 2002 12 21 12  7 29 389 10.4580     98.51800    257.48601    161.89918    -25.00000     25.00000    -13.00164    150.0    150.0      0.0      0.0    -20.0    400.0      1.0
      46 2002 12 21 12  7 39 847 10.4580     97.69868    257.42988    161.71583    -25.00000     25.00000    -12.90869    150.0    150.0      0.0      0.0    -20.0    400.0      1.0
      47 2002 12 21 12  7 50 306 10.4588     96.90843    257.35513    161.53465    -25.00000     25.00000    -12.86435    150.0    150.0      0.0      0.0    -20.0    400.0      1.0
      48 2002 12 21 12  8  0 766 10.4600     96.06384    257.33922    161.35563    -25.00000     25.00000    -12.85180    150.0    150.0      0.0      0.0    -20.0    400.0      1.0
      49 2002 12 21 12  8 11 226 10.4599     95.20273    257.52239    161.17878    -25.00000     25.00000    -12.83800    150.0    150.0      0.0      0.0    -20.0    400.0      1.0
      50 2002 12 21 12  8 21 682 10.4562     94.33859    257.86041    161.00093    -25.00000     25.00000    -12.88195    150.0    150.0      0.0      0.0    -20.0    400.0      1.0
      51 2002 12 21 12  8 32 132 10.4497     93.51108    258.22468    160.81985    -25.00000     25.00000    -12.89942    150.0    150.0      0.0      0.0    -20.0    400.0      1.0
      52 2002 12 21 12  8 42 575 10.4429     92.66458    258.54250    160.63425    -25.00000     25.00000    -12.94065    150.0    150.0      0.0      0.0    -20.0    400.0      1.0
      53 2002 12 21 12  8 53  12 10.4371     91.71693    258.78806    160.44424    -25.00000     25.00000    -12.99557    150.0    150.0      0.0      0.0    -20.0    400.0      1.0
      54 2002 12 21 12  9  3 445 10.4328     90.59029    258.96753    160.25060    -25.00000     25.00000    -13.04645    150.0    150.0      0.0      0.0    -20.0    400.0      1.0
      55 2002 12 21 12  9 13 874 10.4296     89.28109    259.11176    160.05641    -25.00000     25.00000    -13.10432    150.0    150.0      0.0      0.0    -20.0    400.0      1.0
      56 2002 12 21 12  9 24 301 10.4270     87.95133    259.26842    159.85969    -25.00000     25.00000    -13.20928    150.0    150.0      0.0      0.0    -20.0    400.0      1.0
      57 2002 12 21 12  9 34 726 10.4241     86.73115    259.52809    159.66178    -25.00000     25.00000    -13.19185    150.0    150.0      0.0      0.0    -20.0    400.0      1.0
      58 2002 12 21 12  9 45 145 10.4193     85.68975    259.78617    159.46165    -25.00000     25.00000    -13.19678    150.0    150.0      0.0      0.0    -20.0    400.0      1.0
      59 2002 12 21 12  9 55 559 10.4146     84.79249    259.89472    159.25882    -25.00000     25.00000    -13.22267    150.0    150.0      0.0      0.0    -20.0    400.0      1.0
      60 2002 12 21 12 10  5 972 10.4125     83.91130    259.81853    159.05515    -25.00000     25.00000    -13.18355    150.0    150.0      0.0      0.0    -20.0    400.0      1.0
      61 2002 12 21 12 10 16 386 10.4138     83.00370    259.69674    158.85473    -25.00000     25.00000    -13.21690    150.0    150.0      0.0      0.0    -20.0    400.0      1.0
      62 2002 12 21 12 10 26 802 10.4160     82.05747    259.50831    158.65668    -25.00000     25.00000    -13.24168    150.0    150.0      0.0      0.0    -20.0    400.0      1.0
      63 2002 12 21 12 10 37 221 10.4193     81.06125    259.43583    158.46167    -25.00000     25.00000    -13.32931    150.0    150.0      0.0      0.0    -20.0    400.0      1.0
      64 2002 12 21 12 10 47 642 10.4205     80.09641    259.42659    158.26918    -25.00000     25.00000    -13.33627    150.0    150.0      0.0      0.0    -20.0    400.0      1.0
      65 2002 12 21 12 10 58  62 10.4203     79.19563    259.59266    158.07624    -25.00000     25.00000    -13.43583    150.0    150.0      0.0      0.0    -20.0    400.0      1.0
      66 2002 12 21 12 11  8 479 10.4169     78.42522    259.89463    157.88274    -25.00000     25.00000    -13.46883    150.0    150.0      0.0      0.0    -20.0    400.0      1.0
      67 2002 12 21 12 11 18 890 10.4112     77.76757    260.25442    157.68796    -25.00000     25.00000    -13.50735    150.0    150.0      0.0      0.0    -20.0    400.0      1.0
      68 2002 12 21 12 11 29 295 10.4047     77.15062    260.56130    157.48941    -25.00000     25.00000    -13.54252    150.0    150.0      0.0      0.0    -20.0    400.0      1.0
      69 2002 12 21 12 11 39 694 10.3993     76.53394    260.77877    157.28872    -25.00000     25.00000    -13.59794    150.0    150.0      0.0      0.0    -20.0    400.0      1.0
      70 2002 12 21 12 11 50  90 10.3957     75.89666    260.90178    157.08551    -25.00000     25.00000    -13.60265    150.0    150.0      0.0      0.0    -20.0    400.0      1.0
      71 2002 12 21 12 12  0 483 10.3937     75.22795    261.06293    156.88094    -25.00000     25.00000    -13.59536    150.0    150.0      0.0      0.0    -20.0    400.0      1.0
      72 2002 12 21 12 12 10 874 10.3909     74.51773    261.20258    156.67604    -25.00000     25.00000    -13.58396    150.0    150.0      0.0      0.0    -20.0    400.0      1.0
      73 2002 12 21 12 12 21 263 10.3884     73.78879    261.33409    156.47007    -25.00000     25.00000    -13.52787    150.0    150.0      0.0      0.0    -20.0    400.0      1.0
      74 2002 12 21 12 12 31 649 10.3860     73.08973    261.42559    156.26257    -25.00000     25.00000    -13.38233    150.0    150.0      0.0      0.0    -20.0    400.0      1.0
      75 2002 12 21 12 12 42  33 10.3844     72.44104    261.28929    156.05291    -25.00000     25.00000    -13.20275    150.0    150.0      0.0      0.0    -20.0    400.0      1.0
      76 2002 12 21 12 12 52 420 10.3868     71.83704    261.09336    155.84222    -25.00000     25.00000    -12.97087    150.0    150.0      0.0      0.0    -20.0    400.0      1.0
      77 2002 12 21 12 13  2 810 10.3903     71.24868    260.91151    155.62960    -25.00000     25.00000    -12.78309    150.0    150.0      0.0      0.0    -20.0    400.0      1.0
      78 2002 12 21 12 13 13 203 10.3934     70.65125    260.85521    155.41538    -25.00000     25.00000    -12.58264    150.0    150.0      0.0      0.0    -20.0    400.0      1.0
      79 2002 12 21 12 13 23 598 10.3942     70.02940    260.90575    155.19758    -25.00000     25.00000    -12.37909    150.0    150.0      0.0      0.0    -20.0    400.0      1.0
      80 2002 12 21 12 13 33 991 10.3929     69.38833    261.05616    154.97626    -25.00000     25.00000    -12.23481    150.0    150.0      0.0      0.0    -20.0    400.0      1.0
      81 2002 12 21 12 13 44 380 10.3899     68.73559    261.26078    154.75172    -25.00000     25.00000    -12.03944    150.0    150.0      0.0      0.0    -20.0    400.0      1.0
      82 2002 12 21 12 13 54 766 10.3860     68.06425    261.44277    154.52162    -25.00000     25.00000    -11.87356    150.0    150.0      0.0      0.0    -20.0    400.0      1.0
      83 2002 12 21 12 14  5 149 10.3827     67.35990    261.60233    154.28775    -25.00000     25.00000    -11.66024    150.0    150.0      0.0      0.0    -20.0    400.0      1.0
      84 2002 12 21 12 14 15 529 10.3800     66.59858    261.76920    154.05252    -25.00000     25.00000    -11.51623    150.0    150.0      0.0      0.0    -20.0    400.0      1.0
      85 2002 12 21 12 14 25 906 10.3771     65.77857    262.00373    153.81667    -25.00000     25.00000    -11.38925    150.0    150.0      0.0      0.0    -20.0    400.0      1.0
      86 2002 12 21 12 14 36 279 10.3729     64.91104    262.21207    153.57665    -25.00000     25.00000    -11.27278    150.0    150.0      0.0      0.0    -20.0    400.0      1.0
      87 2002 12 21 12 14 46 658 10.3794     64.04630    262.38682    153.33516    -25.00000     25.00000    -11.11482    150.0    150.0      0.0      0.0    -20.0    400.0      1.0
      88 2002 12 21 12 14 57  40 10.3816     63.30730    262.46070    153.08988    -25.00000     25.00000    -10.98828    150.0    150.0      0.0      0.0    -20.0    400.0      1.0
      89 2002 12 21 12 15  7 443 10.4025     62.70767    262.33314    152.84170    -25.00000     25.00000    -10.86816    150.0    150.0      0.0      0.0    -20.0    400.0      1.0
      90 2002 12 21 12 15 17 883 10.4403     62.21876    262.10051    152.60870    -25.00000     25.00000    -10.78158    150.0    150.0      0.0      0.0    -20.0    400.0      1.0
      91 2002 12 21 12 15 28 357 10.4742     61.83547    262.33821    152.36371    -25.00000     25.00000    -10.69944    150.0    150.0      0.0      0.0    -20.0    400.0      1.0
      92 2002 12 21 12 15 38 838 10.4809     61.47976    262.44002    152.11864    -25.00000     25.00000    -10.65476    150.0    150.0      0.0      0.0    -20.0    400.0      1.0
      93 2002 12 21 12 15 49 355 10.5169     61.09056    262.51505    151.87176    -25.00000     25.00000    -10.62037    150.0    150.0      0.0      0.0    -20.0    400.0      1.0
      94 2002 12 21 12 15 59 930 10.5753     60.63984    262.70859    151.62378    -25.00000     25.00000    -10.61276    150.0    150.0      0.0      0.0    -20.0    400.0      1.0
      95 2002 12 21 12 16 10 602 10.6716     60.10696    262.96423    151.37153    -25.00000     25.00000    -10.59435    150.0    150.0      0.0      0.0    -20.0    400.0      1.0
      96 2002 12 21 12 16 21 375 10.7737     59.51119    263.22627    151.11594    -25.00000     25.00000    -10.58324    150.0    150.0      0.0      0.0    -20.0    400.0      1.0
      97 2002 12 21 12 16 32 156 10.7811     58.93408    263.36115    150.85454    -25.00000     25.00000    -10.63038    150.0    150.0      0.0      0.0    -20.0    400.0      1.0
      98 2002 12 21 12 16 42 815 10.6587     58.43710    263.26837    150.59310    -25.00000     25.00000    -10.65341    150.0    150.0      0.0      0.0    -20.0    400.0      1.0
      99 2002 12 21 12 16 53 326 10.5108     58.02260    263.28399    150.33410    -25.00000     25.00000    -10.82033    150.0    150.0      0.0      0.0    -20.0    400.0      1.0
     100 2002 12 21 12 17  3 889 10.5627     57.68099    263.44684    150.07366    -25.00000     25.00000    -10.99587    150.0    150.0      0.0      0.0    -20.0    400.0      1.0
     101 2002 12 21 12 17 14 837 10.9484     57.35206    263.68465    149.80149    -25.00000     25.00000    -11.20524    150.0    150.0      0.0      0.0    -20.0    400.0      1.0
     102 2002 12 21 12 17 25 951 11.1139     57.00444    263.93642    149.52074    -25.00000     25.00000    -11.39709    150.0    150.0      0.0      0.0    -20.0    400.0      1.0
     103 2002 12 21 12 17 36 975 11.0245     56.63065    264.13769    149.24005    -25.00000     25.00000    -11.34165    150.0    150.0      0.0      0.0    -20.0    400.0      1.0
     104 2002 12 21 12 17 47 969 10.9935     56.24138    264.19418    148.95482    -25.00000     25.00000    -11.43355    150.0    150.0      0.0      0.0    -20.0    400.0      1.0
     105 2002 12 21 12 17 58 302 10.3335     55.84941    263.85915    148.68684    -25.00000     25.00000    -11.56451    150.0    150.0      0.0      0.0    -20.0    400.0      1.0
     106 2002 12 21 12 18  8 642 10.3397     55.43268    263.55962    148.41953    -25.00000     25.00000    -11.69242    150.0    150.0      0.0      0.0    -20.0    400.0      1.0
     107 2002 12 21 12 18 19 123 10.4808     55.00622    263.35451    148.15069    -25.00000     25.00000    -11.90877    150.0    150.0      0.0      0.0    -20.0    400.0      1.0
     108 2002 12 21 12 18 30 133 11.0096     54.58399    263.29612    147.87230    -25.00000     25.00000    -12.08218    150.0    150.0      0.0      0.0    -20.0    400.0      1.0
     109 2002 12 21 12 18 41 112 10.9798     54.19529    263.54237    147.59723    -25.00000     25.00000    -12.29867    150.0    150.0      0.0      0.0    -20.0    400.0      1.0
     110 2002 12 21 12 18 51 814 10.7011     53.83307    263.82483    147.33297    -25.00000     25.00000    -12.39153    150.0    150.0      0.0      0.0    -20.0    400.0      1.0
     111 2002 12 21 12 19  2 981 11.1670     53.46441    264.07722    147.05268    -25.00000     25.00000    -12.44274    150.0    150.0      0.0      0.0    -20.0    400.0      1.0
     112 2002 12 21 12 19 13 989 11.0085     53.11162    264.35503    146.77566    -25.00000     25.00000    -12.49660    150.0    150.0      0.0      0.0    -20.0    400.0      1.0
     113 2002 12 21 12 19 24 572 10.5834     52.79015    264.53647    146.50186    -25.00000     25.00000    -12.63023    150.0    150.0      0.0      0.0    -20.0    400.0      1.0
     114 2002 12 21 12 19 34 941 10.3691     52.49510    264.53970    146.22923    -25.00000     25.00000    -12.89551    150.0    150.0      0.0      0.0    -20.0    400.0      1.0
     115 2002 12 21 12 19 46   6 11.0648     52.19557    264.45598    145.93735    -25.00000     25.00000    -13.13555    150.0    150.0      0.0      0.0    -20.0    400.0      1.0
     116 2002 12 21 12 19 56 972 10.9659     51.90742    264.40164    145.64497    -25.00000     25.00000    -13.42991    150.0    150.0      0.0      0.0    -20.0    400.0      1.0
     117 2002 12 21 12 20  8  57 11.0853     51.62381    264.41919    145.34977    -25.00000     25.00000    -13.69823    150.0    150.0      0.0      0.0    -20.0    400.0      1.0
     118 2002 12 21 12 20 18 776 10.7184     51.36071    264.49405    145.06564    -25.00000     25.00000    -13.98308    150.0    150.0      0.0      0.0    -20.0    400.0      1.0
     119 2002 12 21 12 20 29 789 11.0133     51.10063    264.67161    144.77560    -25.00000     25.00000    -14.07374    150.0    150.0      0.0      0.0    -20.0    400.0      1.0
     120 2002 12 21 12 20 40 507 10.7175     50.85464    264.85351    144.49143    -25.00000     25.00000    -14.12828    150.0    150.0      0.0      0.0    -20.0    400.0      1.0
     121 2002 12 21 12 20 51 419 10.9126     50.60997    264.91468    144.20207    -25.00000     25.00000    -14.27978    150.0    150.0      0.0      0.0    -20.0    400.0      1.0
     122 2002 12 21 12 21  2 475 11.0561     50.36664    264.77499    143.90942    -25.00000     25.00000    -14.23635    150.0    150.0      0.0      0.0    -20.0    400.0      1.0
     123 2002 12 21 12 21 13 195 10.7201     50.13466    264.29875    143.63007    -25.00000     25.00000    -14.16270    150.0    150.0      0.0      0.0    -20.0    400.0      1.0
     124 2002 12 21 12 21 24 213 11.0177     49.90034    263.95984    143.34483    -25.00000     25.00000    -14.04893    150.0    150.0      0.0      0.0    -20.0    400.0      1.0
     125 2002 12 21 12 21 34 565 10.3514     49.68539    263.74768    143.07795    -25.00000     25.00000    -14.07589    150.0    150.0      0.0      0.0    -20.0    400.0      1.0
     126 2002 12 21 12 21 45 324 10.7596     49.46975    264.16847    142.80474    -25.00000     25.00000    -14.00854    150.0    150.0      0.0      0.0    -20.0    400.0      1.0
     127 2002 12 21 12 21 56 128 10.8035     49.26412    264.96833    142.52385    -25.00000     25.00000    -13.85037    150.0    150.0      0.0      0.0    -20.0    400.0      1.0
     128 2002 12 21 12 22  7  48 10.9201     49.07001    265.52530    142.23220    -25.00000     25.00000    -13.77195    150.0    150.0      0.0      0.0    -20.0    400.0      1.0
     129 2002 12 21 12 22 17 754 10.7058     48.89433    265.67676    141.94199    -25.00000     25.00000    -13.58180    150.0    150.0      0.0      0.0    -20.0    400.0      1.0
     130 2002 12 21 12 22 28 512 10.7583     48.73006    265.49093    141.64790    -25.00000     25.00000    -13.36840    150.0    150.0      0.0      0.0    -20.0    400.0      1.0
     131 2002 12 21 12 22 39 294 10.7825     48.57697    265.21583    141.35274    -25.00000     25.00000    -13.33881    150.0    150.0      0.0      0.0    -20.0    400.0      1.0
     132 2002 12 21 12 22 49 708 10.4135     48.44111    265.03659    141.06672    -25.00000     25.00000    -13.15768    150.0    150.0      0.0      0.0    -20.0    400.0      1.0
     133 2002 12 21 12 23  0 248 10.5399     48.31819    265.00114    140.77808    -25.00000     25.00000    -13.14018    150.0    150.0      0.0      0.0    -20.0    400.0      1.0
     134 2002 12 21 12 23 11 190 10.9427     48.20932    265.11765    140.47907    -25.00000     25.00000    -13.05420    150.0    150.0      0.0      0.0    -20.0    400.0      1.0
     135 2002 12 21 12 23 22 142 10.9512     48.12002    265.31486    140.18037    -25.00000     25.00000    -12.86187    150.0    150.0      0.0      0.0    -20.0    400.0      1.0
     136 2002 12 21 12 23 32 718 10.5761     48.05001    265.57756    139.88980    -25.00000     25.00000    -12.81917    150.0    150.0      0.0      0.0    -20.0    400.0      1.0
     137 2002 12 21 12 23 43 707 10.9896     47.98876    265.74830    139.58980    -25.00000     25.00000    -12.41718    150.0    150.0      0.0      0.0    -20.0    400.0      1.0
     138 2002 12 21 12 23 54 163 10.4561     47.93744    265.64386    139.30169    -25.00000     25.00000    -12.39531    150.0    150.0      0.0      0.0    -20.0    400.0      1.0
     139 2002 12 21 12 24  4 943 10.7798     47.88606    265.27545    139.00384    -25.00000     25.00000    -12.21031    150.0    150.0      0.0      0.0    -20.0    400.0      1.0
     140 2002 12 21 12 24 15 712 10.7691     47.83359    265.06216    138.70449    -25.00000     25.00000    -12.24119    150.0    150.0      0.0      0.0    -20.0    400.0      1.0
     141 2002 12 21 12 24 26 559 10.8469     47.78063    264.86146    138.40605    -25.00000     25.00000    -12.27040    150.0    150.0      0.0      0.0    -20.0    400.0      1.0
     142 2002 12 21 12 24 37 447 10.8883     47.73007    265.07139    138.10296    -25.00000     25.00000    -12.25555    150.0    150.0      0.0      0.0    -20.0    400.0      1.0
     143 2002 12 21 12 24 48  60 10.6121     47.68622    265.45474    137.80827    -25.00000     25.00000    -12.14594    150.0    150.0      0.0      0.0    -20.0    400.0      1.0
     144 2002 12 21 12 24 58 945 10.8851     47.64585    265.79274    137.49489    -25.00000     25.00000    -12.09343    150.0    150.0      0.0      0.0    -20.0    400.0      1.0
     145 2002 12 21 12 25  9 335 10.3900     47.61268    265.86886    137.19850    -25.00000     25.00000    -12.00038    150.0    150.0      0.0      0.0    -20.0    400.0      1.0
     146 2002 12 21 12 25 19 981 10.6464     47.58334    265.68842    136.88680    -25.00000     25.00000    -12.00661    150.0    150.0      0.0      0.0    -20.0    400.0      1.0
     147 2002 12 21 12 25 30 595 10.6139     47.55739    265.48512    136.57828    -25.00000     25.00000    -11.89354    150.0    150.0      0.0      0.0    -20.0    400.0      1.0
     148 2002 12 21 12 25 41 348 10.7527     47.53413    265.34352    136.25778    -25.00000     25.00000    -12.15852    150.0    150.0      0.0      0.0    -20.0    400.0      1.0
     149 2002 12 21 12 25 52  79 10.7317     47.51392    265.43404    135.94644    -25.00000     25.00000    -12.18438    150.0    150.0      0.0      0.0    -20.0    400.0      1.0
     150 2002 12 21 12 26  3  80 11.0009     47.49723    265.57989    135.61972    -25.00000     25.00000    -12.33335    150.0    150.0      0.0      0.0    -20.0    400.0      1.0
     151 2002 12 21 12 26 13 738 10.6579     47.48666    265.84320    135.30922    -25.00000     25.00000    -12.37146    150.0    150.0      0.0      0.0    -20.0    400.0      1.0
     152 2002 12 21 12 26 24 498 10.7603     47.48349    266.14826    134.99047    -25.00000     25.00000    -12.38608    150.0    150.0      0.0      0.0    -20.0    400.0      1.0
     153 2002 12 21 12 26 35 285 10.7863     47.49084    266.21072    134.67695    -25.00000     25.00000    -12.31077    150.0    150.0      0.0      0.0    -20.0    400.0      1.0
     154 2002 12 21 12 26 46 226 10.9415     47.51179    265.74685    134.35588    -25.00000     25.00000    -12.53890    150.0    150.0      0.0      0.0    -20.0    400.0      1.0
     155 2002 12 21 12 26 57  46 10.8197     47.54733    265.29902    134.05705    -25.00000     25.00000    -12.51140    150.0    150.0      0.0      0.0    -20.0    400.0      1.0
     156 2002 12 21 12 27  7 623 10.5769     47.59575    264.82889    133.77052    -25.00000     25.00000    -12.71375    150.0    150.0      0.0      0.0    -20.0    400.0      1.0
     157 2002 12 21 12 27 18 182 10.5591     47.65663    265.02645    133.50186    -25.00000     25.00000    -12.61226    150.0    150.0      0.0      0.0    -20.0    400.0      1.0
     158 2002 12 21 12 27 28 657 10.4752     47.72915    265.42404    133.22989    -25.00000     25.00000    -12.93815    150.0    150.0      0.0      0.0    -20.0    400.0      1.0
     159 2002 12 21 12 27 39 421 10.7640     47.81354    266.00569    132.96446    -25.00000     25.00000    -12.91681    150.0    150.0      0.0      0.0    -20.0    400.0      1.0
     160 2002 12 21 12 27 49 951 10.5304     47.90182    266.49699    132.70361    -25.00000     25.00000    -12.80404    150.0    150.0      0.0      0.0    -20.0    400.0      1.0
     161 2002 12 21 12 28  0 412 10.4605     47.98930    266.66387    132.44597    -25.00000     25.00000    -12.83630    150.0    150.0      0.0      0.0    -20.0    400.0      1.0
     162 2002 12 21 12 28 11 202 10.7905     48.07210    266.30687    132.18173    -25.00000     25.00000    -12.76860    150.0    150.0      0.0      0.0    -20.0    400.0      1.0
     163 2002 12 21 12 28 21 908 10.7058     48.14481    265.96486    131.92740    -25.00000     25.00000    -12.91650    150.0    150.0      0.0      0.0    -20.0    400.0      1.0
     164 2002 12 21 12 28 32 529 10.6205     48.20787    265.74798    131.67998    -25.00000     25.00000    -13.13635    150.0    150.0      0.0      0.0    -20.0    400.0      1.0
     165 2002 12 21 12 28 42 836 10.3069     48.26766    265.77061    131.43894    -25.00000     25.00000    -13.26249    150.0    150.0      0.0      0.0    -20.0    400.0      1.0
     166 2002 12 21 12 28 53 503 10.6669     48.32184    265.92301    131.18998    -25.00000     25.00000    -13.52467    150.0    150.0      0.0      0.0    -20.0    400.0      1.0
     167 2002 12 21 12 29  4 215 10.7129     48.35254    266.37003    130.94299    -25.00000     25.00000    -13.59467    150.0    150.0      0.0      0.0    -20.0    400.0      1.0
     168 2002 12 21 12 29 14 827 10.6119     48.37048    266.56726    130.70668    -25.00000     25.00000    -13.67789    150.0    150.0      0.0      0.0    -20.0    400.0      1.0
     169 2002 12 21 12 29 25 297 10.4695     48.46942    266.74661    130.47645    -25.00000     25.00000    -13.60650    150.0    150.0      0.0      0.0    -20.0    400.0      1.0
     170 2002 12 21 12 29 35 972 10.6748     48.76230    266.56401    130.24868    -25.00000     25.00000    -13.54964    150.0    150.0      0.0      0.0    -20.0    400.0      1.0
     171 2002 12 21 12 29 46 513 10.5417     49.41334    266.25066    130.03844    -25.00000     25.00000    -13.66101    150.0    150.0      0.0      0.0    -20.0    400.0      1.0
     172 2002 12 21 12 29 57 129 10.6156     50.51675    266.09036    129.83473    -25.00000     25.00000    -13.76050    150.0    150.0      0.0      0.0    -20.0    400.0      1.0
     173 2002 12 21 12 30  7 751 10.6217     51.66619    265.96847    129.62837    -25.00000     25.00000    -13.93569    150.0    150.0      0.0      0.0    -20.0    400.0      1.0
     174 2002 12 21 12 30 18 475 10.7239     52.40594    266.03006    129.41968    -25.00000     25.00000    -14.23044    150.0    150.0      0.0      0.0    -20.0    400.0      1.0
     175 2002 12 21 12 30 29 267 10.7929     52.59101    266.45499    129.18585    -25.00000     25.00000    -14.30121    150.0    150.0      0.0      0.0    -20.0    400.0      1.0
     176 2002 12 21 12 30 39 793 10.5260     52.37095    266.68969    128.94328    -25.00000     25.00000    -14.43038    150.0    150.0      0.0      0.0    -20.0    400.0      1.0
     177 2002 12 21 12 30 50 496 10.7024     52.11309    266.91840    128.69705    -25.00000     25.00000    -14.21533    150.0    150.0      0.0      0.0    -20.0    400.0      1.0
     178 2002 12 21 12 31  1 135 10.6388     51.52614    266.95109    128.43404    -25.00000     25.00000    -14.17701    150.0    150.0      0.0      0.0    -20.0    400.0      1.0
     179 2002 12 21 12 31 12  42 10.9070     50.77570    266.75262    128.17148    -25.00000     25.00000    -14.18793    150.0    150.0      0.0      0.0    -20.0    400.0      1.0
     180 2002 12 21 12 31 22 599 10.5569     49.67733    266.65618    127.91404    -25.00000     25.00000    -14.26539    150.0    150.0      0.0      0.0    -20.0    400.0      1.0
     181 2002 12 21 12 31 33 351 10.7527     48.78378    266.51666    127.67454    -25.00000     25.00000    -14.57211    150.0    150.0      0.0      0.0    -20.0    400.0      1.0
     182 2002 12 21 12 31 44 127 10.7756     48.24018    266.38800    127.43830    -25.00000     25.00000    -14.83605    150.0    150.0      0.0      0.0    -20.0    400.0      1.0
     183 2002 12 21 12 31 54 955 10.8285     48.22766    266.20367    127.22599    -25.00000     25.00000    -14.88153    150.0    150.0      0.0      0.0    -20.0    400.0      1.0
     184 2002 12 21 12 32  5 853 10.8971     48.40886    266.12393    127.00712    -25.00000     25.00000    -15.30117    150.0    150.0      0.0      0.0    -20.0    400.0      1.0
     185 2002 12 21 12 32 16 372 10.5195     48.62187    266.44438    126.82257    -25.00000     25.00000    -15.20570    150.0    150.0      0.0      0.0    -20.0    400.0      1.0
     186 2002 12 21 12 32 27  65 10.6929     48.65014    266.87531    126.62852    -25.00000     25.00000    -15.35912    150.0    150.0      0.0      0.0    -20.0    400.0      1.0
     187 2002 12 21 12 32 37 864 10.7991     48.27297    267.12191    126.44795    -25.00000     25.00000    -15.14643    150.0    150.0      0.0      0.0    -20.0    400.0      1.0
     188 2002 12 21 12 32 48 745 10.8813     49.08038    267.28814    126.25329    -25.00000     25.00000    -15.22937    150.0    150.0      0.0      0.0    -20.0    400.0      1.0
     189 2002 12 21 12 32 59 662 10.9170     49.81248    267.21089    126.06461    -25.00000     25.00000    -15.15101    150.0    150.0      0.0      0.0    -20.0    400.0      1.0
     190 2002 12 21 12 33 10 482 10.8200     50.37279    266.84220    125.87744    -25.00000     25.00000    -15.17837    150.0    150.0      0.0      0.0    -20.0    400.0      1.0
     191 2002 12 21 12 33 20 768 10.2860     50.69948    266.67914    125.71579    -25.00000     25.00000    -15.21618    150.0    150.0      0.0      0.0    -20.0    400.0      1.0
     192 2002 12 21 12 33 31 456 10.6876     51.01826    266.68191    125.56348    -25.00000     25.00000    -15.15852    150.0    150.0      0.0      0.0    -20.0    400.0      1.0
     193 2002 12 21 12 33 42 186 10.7299     51.11436    266.71749    125.42589    -25.00000     25.00000    -15.03290    150.0    150.0      0.0      0.0    -20.0    400.0      1.0
     194 2002 12 21 12 33 53 166 10.9805     51.00586    266.81750    125.28197    -25.00000     25.00000    -15.12187    150.0    150.0      0.0      0.0    -20.0    400.0      1.0
     195 2002 12 21 12 34  3 698 10.5317     50.82233    266.90007    125.15343    -25.00000     25.00000    -14.88644    150.0    150.0      0.0      0.0    -20.0    400.0      1.0
     196 2002 12 21 12 34 14 343 10.6451     50.75461    266.91818    125.02173    -25.00000     25.00000    -14.91552    150.0    150.0      0.0      0.0    -20.0    400.0      1.0
     197 2002 12 21 12 34 25 204 10.8607     50.73731    266.81834    124.90118    -25.00000     25.00000    -14.71810    150.0    150.0      0.0      0.0    -20.0    400.0      1.0
     198 2002 12 21 12 34 35 557 10.3531     50.90891    266.74657    124.78371    -25.00000     25.00000    -14.75384    150.0    150.0      0.0      0.0    -20.0    400.0      1.0
     199 2002 12 21 12 34 46 208 10.6511     51.05777    266.78515    124.67516    -25.00000     25.00000    -14.57668    150.0    150.0      0.0      0.0    -20.0    400.0      1.0
     200 2002 12 21 12 34 56 969 10.7615     51.15413    266.96613    124.56149    -25.00000     25.00000    -14.61106    150.0    150.0      0.0      0.0    -20.0    400.0      1.0
     201 2002 12 21 12 35  7 824 10.8541     51.23976    267.16839    124.45847    -25.00000     25.00000    -14.45118    150.0    150.0      0.0      0.0    -20.0    400.0      1.0
     202 2002 12 21 12 35 18 686 10.8623     51.37478    267.41477    124.35936    -25.00000     25.00000    -14.51262    150.0    150.0      0.0      0.0    -20.0    400.0      1.0
     203 2002 12 21 12 35 29 588 10.9017     51.59773    267.42014    124.27011    -25.00000     25.00000    -14.36196    150.0    150.0      0.0      0.0    -20.0    400.0      1.0
     204 2002 12 21 12 35 39 924 10.3360     51.74064    267.04378    124.18671    -25.00000     25.00000    -14.42529    150.0    150.0      0.0      0.0    -20.0    400.0      1.0
     205 2002 12 21 12 35 50 626 10.7020     51.91716    266.74960    124.10440    -25.00000     25.00000    -14.33483    150.0    150.0      0.0      0.0    -20.0    400.0      1.0
     206 2002 12 21 12 36  1 365 10.7391     52.22905    266.41005    124.02598    -25.00000     25.00000    -14.42147    150.0    150.0      0.0      0.0    -20.0    400.0      1.0
     207 2002 12 21 12 36 12 200 10.8351     52.77124    266.47618    123.95595    -25.00000     25.00000    -14.52640    150.0    150.0      0.0      0.0    -20.0    400.0      1.0
     208 2002 12 21 12 36 22 893 10.6933     53.65228    266.81445    123.89435    -25.00000     25.00000    -14.31856    150.0    150.0      0.0      0.0    -20.0    400.0      1.0
     209 2002 12 21 12 36 33 372 10.4792     55.08507    267.38280    123.84008    -25.00000     25.00000    -14.11515    150.0    150.0      0.0      0.0    -20.0    400.0      1.0
     210 2002 12 21 12 36 43 992 10.6200     56.98487    267.71404    123.76399    -25.00000     25.00000    -13.75653    150.0    150.0      0.0      0.0    -20.0    400.0      1.0
     211 2002 12 21 12 36 54 570 10.5776     56.74109    267.87199    123.66406    -25.00000     25.00000    -13.34565    150.0    150.0      0.0      0.0    -20.0    400.0      1.0
     212 2002 12 21 12 37  5 425 10.8546     56.89099    267.64704    123.52294    -25.00000     25.00000    -12.96635    150.0    150.0      0.0      0.0    -20.0    400.0      1.0
     213 2002 12 21 12 37 16  34 10.6091     56.36491    267.41291    123.34117    -25.00000     25.00000    -12.73722    150.0    150.0      0.0      0.0    -20.0    400.0      1.0
     214 2002 12 21 12 37 26 782 10.7484     56.04850    267.19449    123.12991    -25.00000     25.00000    -12.69457    150.0    150.0      0.0      0.0    -20.0    400.0      1.0
     215 2002 12 21 12 37 37 540 10.7579     56.51378    267.08146    122.90229    -25.00000     25.00000    -12.69710    150.0    150.0      0.0      0.0    -20.0    400.0      1.0
     216 2002 12 21 12 37 48 325 10.7851     56.14308    267.18338    122.67015    -25.00000     25.00000    -12.67273    150.0    150.0      0.0      0.0    -20.0    400.0      1.0
     217 2002 12 21 12 37 58 968 10.6425     55.33164    267.37335    122.43837    -25.00000     25.00000    -12.82023    150.0    150.0      0.0      0.0    -20.0    400.0      1.0
     218 2002 12 21 12 38  9 710 10.7425     54.38971    267.57943    122.21326    -25.00000     25.00000    -12.90184    150.0    150.0      0.0      0.0    -20.0    400.0      1.0
     219 2002 12 21 12 38 20 496 10.7859     53.25941    267.64320    122.00190    -25.00000     25.00000    -13.02649    150.0    150.0      0.0      0.0    -20.0    400.0      1.0
     220 2002 12 21 12 38 31 362 10.8660     51.95861    267.47952    121.80123    -25.00000     25.00000    -13.32537    150.0    150.0      0.0      0.0    -20.0    400.0      1.0
     221 2002 12 21 12 38 42 202 10.8395     50.76021    267.19617    121.61973    -25.00000     25.00000    -13.55259    150.0    150.0      0.0      0.0    -20.0    400.0      1.0
     222 2002 12 21 12 38 52 911 10.7092     49.95078    266.98468    121.47229    -25.00000     25.00000    -13.93599    150.0    150.0      0.0      0.0    -20.0    400.0      1.0
     223 2002 12 21 12 39  3 640 10.7296     49.54948    266.88149    121.34395    -25.00000     25.00000    -14.17153    150.0    150.0      0.0      0.0    -20.0    400.0      1.0
     224 2002 12 21 12 39 14   7 10.3669     49.96093    267.00873    121.23942    -25.00000     25.00000    -14.57276    150.0    150.0      0.0      0.0    -20.0    400.0      1.0
     225 2002 12 21 12 39 24 816 10.8090     51.22755    267.49544    121.15336    -25.00000     25.00000    -14.90660    150.0    150.0      0.0      0.0    -20.0    400.0      1.0
     226 2002 12 21 12 39 35 399 10.5826     52.83949    267.94496    121.06791    -25.00000     25.00000    -15.09473    150.0    150.0      0.0      0.0    -20.0    400.0      1.0
     227 2002 12 21 12 39 46  95 10.6960     52.52676    268.17372    120.98680    -25.00000     25.00000    -15.38101    150.0    150.0      0.0      0.0    -20.0    400.0      1.0
     228 2002 12 21 12 39 56 911 10.8166     52.40505    268.02301    120.92388    -25.00000     25.00000    -15.45411    150.0    150.0      0.0      0.0    -20.0    400.0      1.0
     229 2002 12 21 12 40  7 435 10.5238     53.64654    267.55613    120.86541    -25.00000     25.00000    -15.50932    150.0    150.0      0.0      0.0    -20.0    400.0      1.0
     230 2002 12 21 12 40 18 113 10.6778     54.05315    267.27703    120.80288    -25.00000     25.00000    -15.60918    150.0    150.0      0.0      0.0    -20.0    400.0      1.0
     231 2002 12 21 12 40 28 393 10.2798     54.48522    267.08012    120.75119    -25.00000     25.00000    -15.56088    150.0    150.0      0.0      0.0    -20.0    400.0      1.0
     232 2002 12 21 12 40 39  42 10.6490     54.89990    267.21659    120.68825    -25.00000     25.00000    -15.51566    150.0    150.0      0.0      0.0    -20.0    400.0      1.0
     233 2002 12 21 12 40 49 714 10.6721     55.33515    267.62280    120.63228    -25.00000     25.00000    -15.39344    150.0    150.0      0.0      0.0    -20.0    400.0      1.0
     234 2002 12 21 12 41  0 401 10.6870     55.74620    267.90897    120.57588    -25.00000     25.00000    -15.25713    150.0    150.0      0.0      0.0    -20.0    400.0      1.0
     235 2002 12 21 12 41 10 958 10.5573     55.99189    268.08343    120.52504    -25.00000     25.00000    -15.02615    150.0    150.0      0.0      0.0    -20.0    400.0      1.0
     236 2002 12 21 12 41 21 690 10.7321     56.23349    268.00928    120.47877    -25.00000     25.00000    -14.80586    150.0    150.0      0.0      0.0    -20.0    400.0      1.0
     237 2002 12 21 12 41 32 120 10.4297     56.24161    267.80073    120.42827    -25.00000     25.00000    -14.85811    150.0    150.0      0.0      0.0    -20.0    400.0      1.0
     238 2002 12 21 12 41 42 749 10.6291     56.12477    267.68523    120.38116    -25.00000     25.00000    -14.71831    150.0    150.0      0.0      0.0    -20.0    400.0      1.0
     239 2002 12 21 12 41 53 417 10.6679     56.09149    267.60518    120.33032    -25.00000     25.00000    -14.96353    150.0    150.0      0.0      0.0    -20.0    400.0      1.0
     240 2002 12 21 12 42  4 189 10.7722     56.23538    267.50867    120.28401    -25.00000     25.00000    -14.95636    150.0    150.0      0.0      0.0    -20.0    400.0      1.0
     241 2002 12 21 12 42 14 887 10.6974     56.43951    267.47720    120.22438    -25.00000     25.00000    -15.09416    150.0    150.0      0.0      0.0    -20.0    400.0      1.0
     242 2002 12 21 12 42 25 366 10.4797     56.51859    267.45575    120.17173    -25.00000     25.00000    -15.01868    150.0    150.0      0.0      0.0    -20.0    400.0      1.0
     243 2002 12 21 12 42 35 969 10.6027     56.65567    267.51878    120.11723    -25.00000     25.00000    -14.98080    150.0    150.0      0.0      0.0    -20.0    400.0      1.0
     244 2002 12 21 12 42 46 470 10.5016     56.77927    267.56554    120.08188    -25.00000     25.00000    -14.97257    150.0    150.0      0.0      0.0    -20.0    400.0      1.0
     245 2002 12 21 12 42 57 271 10.8004     56.94915    267.60359    120.06575    -25.00000     25.00000    -14.83888    150.0    150.0      0.0      0.0    -20.0    400.0      1.0
     246 2002 12 21 12 43  7 770 10.4995     57.15608    267.63279    120.05464    -25.00000     25.00000    -14.98262    150.0    150.0      0.0      0.0    -20.0    400.0      1.0
     247 2002 12 21 12 43 18 505 10.7351     57.29041    267.68087    120.05515    -25.00000     25.00000    -15.00107    150.0    150.0      0.0      0.0    -20.0    400.0      1.0
     248 2002 12 21 12 43 29 296 10.7908     57.41551    267.69571    120.04234    -25.00000     25.00000    -15.13566    150.0    150.0      0.0      0.0    -20.0    400.0      1.0
     249 2002 12 21 12 43 40   0 10.7033     57.55504    267.77738    120.02718    -25.00000     25.00000    -15.16927    150.0    150.0      0.0      0.0    -20.0    400.0      1.0
     250 2002 12 21 12 43 50 870 10.8706     57.70910    267.93983    120.00655    -25.00000     25.00000    -15.15937    150.0    150.0      0.0      0.0    -20.0    400.0      1.0
     251 2002 12 21 12 44  1 199 10.3284     57.85884    267.94947    119.98351    -25.00000     25.00000    -15.10911    150.0    150.0      0.0      0.0    -20.0    400.0      1.0
     252 2002 12 21 12 44 11 849 10.6507     57.98514    267.84995    119.93963    -25.00000     25.00000    -15.09671    150.0    150.0      0.0      0.0    -20.0    400.0      1.0
     253 2002 12 21 12 44 22 515 10.6659     58.08739    267.71112    119.88852    -25.00000     25.00000    -14.80571    150.0    150.0      0.0      0.0    -20.0    400.0      1.0
     254 2002 12 21 12 44 33 289 10.7735     58.19472    267.62658    119.82516    -25.00000     25.00000    -14.95833    150.0    150.0      0.0      0.0    -20.0    400.0      1.0
     255 2002 12 21 12 44 43 983 10.6943     58.33245    267.61914    119.74667    -25.00000     25.00000    -14.92533    150.0    150.0      0.0      0.0    -20.0    400.0      1.0
     256 2002 12 21 12 44 54 748 10.7652     58.47366    267.57767    119.65832    -25.00000     25.00000    -14.75937    150.0    150.0      0.0      0.0    -20.0    400.0      1.0
     257 2002 12 21 12 45  5 410 10.6616     58.58083    267.56734    119.56876    -25.00000     25.00000    -14.86691    150.0    150.0      0.0      0.0    -20.0    400.0      1.0
     258 2002 12 21 12 45 16  68 10.6579     58.68753    267.64799    119.49929    -25.00000     25.00000    -14.63751    150.0    150.0      0.0      0.0    -20.0    400.0      1.0
     259 2002 12 21 12 45 26 787 10.7195     58.78381    267.86792    119.41249    -25.00000     25.00000    -14.70004    150.0    150.0      0.0      0.0    -20.0    400.0      1.0
     260 2002 12 21 12 45 37 631 10.8433     58.86832    268.06313    119.33261    -25.00000     25.00000    -14.64376    150.0    150.0      0.0      0.0    -20.0    400.0      1.0
     261 2002 12 21 12 45 48 414 10.7837     58.94347    268.17669    119.24022    -25.00000     25.00000    -14.68970    150.0    150.0      0.0      0.0    -20.0    400.0      1.0
     262 2002 12 21 12 45 58 850 10.4353     59.01532    268.18234    119.16404    -25.00000     25.00000    -14.56239    150.0    150.0      0.0      0.0    -20.0    400.0      1.0
     263 2002 12 21 12 46  9 534 10.6839     59.08005    268.00671    119.07298    -25.00000     25.00000    -14.47088    150.0    150.0      0.0      0.0    -20.0    400.0      1.0
     264 2002 12 21 12 46 19 946 10.4120     59.14963    267.75886    118.99497    -25.00000     25.00000    -14.33611    150.0    150.0      0.0      0.0    -20.0    400.0      1.0
     265 2002 12 21 12 46 30 726 10.7803     59.22017    267.68740    118.90358    -25.00000     25.00000    -14.33333    150.0    150.0      0.0      0.0    -20.0    400.0      1.0
     266 2002 12 21 12 46 41 239 10.5136     59.29373    267.71437    118.81815    -25.00000     25.00000    -14.19129    150.0    150.0      0.0      0.0    -20.0    400.0      1.0
     267 2002 12 21 12 46 52  60 10.8201     59.35790    267.83227    118.71833    -25.00000     25.00000    -14.25395    150.0    150.0      0.0      0.0    -20.0    400.0      1.0
     268 2002 12 21 12 47  2 826 10.7665     59.42671    267.91071    118.61153    -25.00000     25.00000    -14.32162    150.0    150.0      0.0      0.0    -20.0    400.0      1.0
     269 2002 12 21 12 47 13 301 10.4749     59.50264    267.99630    118.50454    -25.00000     25.00000    -14.26385    150.0    150.0      0.0      0.0    -20.0    400.0      1.0
     270 2002 12 21 12 47 23 993 10.6917     59.57248    268.12973    118.38216    -25.00000     25.00000    -14.28546    150.0    150.0      0.0      0.0    -20.0    400.0      1.0
     271 2002 12 21 12 47 34 416 10.4231     59.63847    268.19456    118.26351    -25.00000     25.00000    -14.21717    150.0    150.0      0.0      0.0    -20.0    400.0      1.0
     272 2002 12 21 12 47 45 188 10.7723     59.68945    268.24413    118.13299    -25.00000     25.00000    -14.23429    150.0    150.0      0.0      0.0    -20.0    400.0      1.0
     273 2002 12 21 12 47 55 842 10.6537     59.72680    268.24605    118.01433    -25.00000     25.00000    -14.04044    150.0    150.0      0.0      0.0    -20.0    400.0      1.0
     274 2002 12 21 12 48  6 618 10.7757     59.74719    268.13957    117.88672    -25.00000     25.00000    -14.17086    150.0    150.0      0.0      0.0    -20.0    400.0      1.0
     275 2002 12 21 12 48 17 215 10.5977     59.75715    267.95833    117.77377    -25.00000     25.00000    -14.08137    150.0    150.0      0.0      0.0    -20.0    400.0      1.0
     276 2002 12 21 12 48 27 851 10.6361     59.75876    267.82403    117.65467    -25.00000     25.00000    -14.11175    150.0    150.0      0.0      0.0    -20.0    400.0      1.0
     277 2002 12 21 12 48 38 625 10.7741     59.75552    267.79676    117.53531    -25.00000     25.00000    -14.19974    150.0    150.0      0.0      0.0    -20.0    400.0      1.0
     278 2002 12 21 12 48 48 893 10.2678     59.76732    267.85677    117.43240    -25.00000     25.00000    -14.09444    150.0    150.0      0.0      0.0    -20.0    400.0      1.0
     279 2002 12 21 12 48 59 616 10.7232     59.77604    268.09526    117.32504    -25.00000     25.00000    -14.07604    150.0    150.0      0.0      0.0    -20.0    400.0      1.0
     280 2002 12 21 12 49 10 357 10.7409     59.81015    268.30493    117.22703    -25.00000     25.00000    -13.90209    150.0    150.0      0.0      0.0    -20.0    400.0      1.0
     281 2002 12 21 12 49 21 166 10.8083     59.87463    268.35015    117.13219    -25.00000     25.00000    -13.93473    150.0    150.0      0.0      0.0    -20.0    400.0      1.0
     282 2002 12 21 12 49 31 933 10.7678     59.97706    268.06724    117.05542    -25.00000     25.00000    -13.97335    150.0    150.0      0.0      0.0    -20.0    400.0      1.0
     283 2002 12 21 12 49 42 611 10.6774     60.11483    267.87048    116.98283    -25.00000     25.00000    -13.94692    150.0    150.0      0.0      0.0    -20.0    400.0      1.0
     284 2002 12 21 12 49 52 934 10.3230     60.28043    267.62148    116.93224    -25.00000     25.00000    -14.25733    150.0    150.0      0.0      0.0    -20.0    400.0      1.0
     285 2002 12 21 12 50  3 602 10.6684     60.46400    267.67811    116.89370    -25.00000     25.00000    -14.28689    150.0    150.0      0.0      0.0    -20.0    400.0      1.0
     286 2002 12 21 12 50 14 329 10.7270     60.66633    267.97411    116.86859    -25.00000     25.00000    -14.34258    150.0    150.0      0.0      0.0    -20.0    400.0      1.0
     287 2002 12 21 12 50 24 831 10.5021     60.87949    268.30239    116.85806    -25.00000     25.00000    -14.29982    150.0    150.0      0.0      0.0    -20.0    400.0      1.0
     288 2002 12 21 12 50 35 383 10.5518     61.10176    268.61928    116.85320    -25.00000     25.00000    -14.18683    150.0    150.0      0.0      0.0    -20.0    400.0      1.0
     289 2002 12 21 12 50 45 817 10.4341     61.33446    268.68563    116.86176    -25.00000     25.00000    -13.85912    150.0    150.0      0.0      0.0    -20.0    400.0      1.0
     290 2002 12 21 12 50 56 583 10.7659     61.58102    268.34180    116.86527    -25.00000     25.00000    -13.71408    150.0    150.0      0.0      0.0    -20.0    400.0      1.0
     291 2002 12 21 12 51  6 954 10.3708     61.84206    268.03185    116.88777    -25.00000     25.00000    -13.60154    150.0    150.0      0.0      0.0    -20.0    400.0      1.0
     292 2002 12 21 12 51 17 510 10.5560     62.13161    267.85018    116.91096    -25.00000     25.00000    -13.51948    150.0    150.0      0.0      0.0    -20.0    400.0      1.0
     293 2002 12 21 12 51 27 984 10.4746     62.34779    267.80522    116.93914    -25.00000     25.00000    -13.43508    150.0    150.0      0.0      0.0    -20.0    400.0      1.0
     294 2002 12 21 12 51 38 771 10.7865     62.50892    267.99399    116.97529    -25.00000     25.00000    -13.29770    150.0    150.0      0.0      0.0    -20.0    400.0      1.0
     295 2002 12 21 12 51 49 448 10.6772     62.67606    268.29032    117.00733    -25.00000     25.00000    -12.97486    150.0    150.0      0.0      0.0    -20.0    400.0      1.0
     296 2002 12 21 12 51 59 968 10.5199     62.82139    268.59675    117.03311    -25.00000     25.00000    -12.77478    150.0    150.0      0.0      0.0    -20.0    400.0      1.0
     297 2002 12 21 12 52 10 624 10.6560     62.87992    268.69649    117.04939    -25.00000     25.00000    -12.65465    150.0    150.0      0.0      0.0    -20.0    400.0      1.0
     298 2002 12 21 12 52 21 105 10.4806     62.94757    268.27823    117.06007    -25.00000     25.00000    -12.29954    150.0    150.0      0.0      0.0    -20.0    400.0      1.0
     299 2002 12 21 12 52 31 727 10.6225     63.01055    268.06028    117.05275    -25.00000     25.00000    -12.46126    150.0    150.0      0.0      0.0    -20.0    400.0      1.0
     300 2002 12 21 12 52 42 288 10.5610     63.05904    267.90392    117.03597    -25.00000     25.00000    -12.24630    150.0    150.0      0.0      0.0    -20.0    400.0      1.0
     301 2002 12 21 12 52 52 934 10.6460     63.06782    267.86654    117.00513    -25.00000     25.00000    -12.30376    150.0    150.0      0.0      0.0    -20.0    400.0      1.0
     302 2002 12 21 12 53  3 585 10.6511     63.01875    268.04457    116.95538    -25.00000     25.00000    -12.39274    150.0    150.0      0.0      0.0    -20.0    400.0      1.0
     303 2002 12 21 12 53 14 224 10.6388     62.68158    268.32106    116.90043    -25.00000     25.00000    -12.04689    150.0    150.0      0.0      0.0    -20.0    400.0      1.0
     304 2002 12 21 12 53 24 808 10.5836     62.44793    268.60785    116.83974    -25.00000     25.00000    -11.92875    150.0    150.0      0.0      0.0    -20.0    400.0      1.0
     305 2002 12 21 12 53 35 350 10.5421     62.40433    268.71431    116.78591    -25.00000     25.00000    -11.52088    150.0    150.0      0.0      0.0    -20.0    400.0      1.0
     306 2002 12 21 12 53 46  88 10.7382     62.57034    268.43637    116.74045    -25.00000     25.00000    -11.33704    150.0    150.0      0.0      0.0    -20.0    400.0      1.0
     307 2002 12 21 12 53 56 796 10.7076     62.66989    268.28038    116.70651    -25.00000     25.00000    -11.11400    150.0    150.0      0.0      0.0    -20.0    400.0      1.0
     308 2002 12 21 12 54  7 448 10.6521     62.21515    268.16745    116.69950    -25.00000     25.00000    -10.94200    150.0    150.0      0.0      0.0    -20.0    400.0      1.0
     309 2002 12 21 12 54 18 164 10.7167     62.46843    268.11822    116.69217    -25.00000     25.00000    -10.85129    150.0    150.0      0.0      0.0    -20.0    400.0      1.0
     310 2002 12 21 12 54 28 923 10.7581     62.12281    268.20860    116.68659    -25.00000     25.00000    -10.48108    150.0    150.0      0.0      0.0    -20.0    400.0      1.0
     311 2002 12 21 12 54 39 290 10.3674     61.99442    268.30528    116.66352    -25.00000     25.00000    -10.26539    150.0    150.0      0.0      0.0    -20.0    400.0      1.0
     312 2002 12 21 12 54 49 878 10.5884     62.36632    268.52792    116.59622    -25.00000     25.00000     -9.90576    150.0    150.0      0.0      0.0    -20.0    400.0      1.0
     313 2002 12 21 12 55  0 548 10.6696     61.82926    268.66151    116.49581    -25.00000     25.00000     -9.77053    150.0    150.0      0.0      0.0    -20.0    400.0      1.0
     314 2002 12 21 12 55 11 334 10.7859     62.35891    268.45414    116.34998    -25.00000     25.00000     -9.75358    150.0    150.0      0.0      0.0    -20.0    400.0      1.0
     315 2002 12 21 12 55 21 937 10.6033     62.64580    268.35628    116.17189    -25.00000     25.00000     -9.87741    150.0    150.0      0.0      0.0    -20.0    400.0      1.0
     316 2002 12 21 12 55 32 484 10.5464     62.17770    268.29512    115.97662    -25.00000     25.00000     -9.99159    150.0    150.0      0.0      0.0    -20.0    400.0      1.0
     317 2002 12 21 12 55 43  16 10.5320     61.57650    268.24699    115.78284    -25.00000     25.00000    -10.26010    150.0    150.0      0.0      0.0    -20.0    400.0      1.0
     318 2002 12 21 12 55 53 336 10.3205     61.21494    268.22517    115.59914    -25.00000     25.00000    -10.58556    150.0    150.0      0.0      0.0    -20.0    400.0      1.0
     319 2002 12 21 12 56  3 815 10.4792     60.75984    268.32255    115.42618    -25.00000     25.00000    -10.87688    150.0    150.0      0.0      0.0    -20.0    400.0      1.0
     320 2002 12 21 12 56 14 147 10.3314     59.95249    268.51853    115.30077    -25.00000     25.00000    -11.17241    150.0    150.0      0.0      0.0    -20.0    400.0      1.0
     321 2002 12 21 12 56 24 602 10.4553     59.34230    268.58555    115.17492    -25.00000     25.00000    -11.50237    150.0    150.0      0.0      0.0    -20.0    400.0      1.0
     322 2002 12 21 12 56 35 209 10.6067     59.11898    268.55397    115.06657    -25.00000     25.00000    -11.91373    150.0    150.0      0.0      0.0    -20.0    400.0      1.0
     323 2002 12 21 12 56 45 763 10.5542     58.98066    268.59305    114.98839    -25.00000     25.00000    -12.33409    150.0    150.0      0.0      0.0    -20.0    400.0      1.0
     324 2002 12 21 12 56 56 381 10.6185     58.62356    268.58189    114.90288    -25.00000     25.00000    -12.65194    150.0    150.0      0.0      0.0    -20.0    400.0      1.0
     325 2002 12 21 12 57  6 691 10.3098     58.98499    268.46505    114.84666    -25.00000     25.00000    -12.97816    150.0    150.0      0.0      0.0    -20.0    400.0      1.0
     326 2002 12 21 12 57 17 402 10.7104     59.07768    268.44432    114.80780    -25.00000     25.00000    -13.11096    150.0    150.0      0.0      0.0    -20.0    400.0      1.0
     327 2002 12 21 12 57 28  82 10.6809     59.18085    268.51922    114.77216    -25.00000     25.00000    -13.11207    150.0    150.0      0.0      0.0    -20.0    400.0      1.0
     328 2002 12 21 12 57 38 745 10.6625     59.92477    268.67834    114.77193    -25.00000     25.00000    -13.12420    150.0    150.0      0.0      0.0    -20.0    400.0      1.0
     329 2002 12 21 12 57 49 349 10.6037     59.90665    268.80270    114.77306    -25.00000     25.00000    -13.04036    150.0    150.0      0.0      0.0    -20.0    400.0      1.0
     330 2002 12 21 12 57 59 994 10.6448     59.45857    268.77621    114.76375    -25.00000     25.00000    -12.84346    150.0    150.0      0.0      0.0    -20.0    400.0      1.0
     331 2002 12 21 12 58 10 596 10.6030     60.29308    268.56502    114.81625    -25.00000     25.00000    -12.97025    150.0    150.0      0.0      0.0    -20.0    400.0      1.0
     332 2002 12 21 12 58 21 242 10.6453     61.38442    268.38836    114.88057    -25.00000     25.00000    -12.75334    150.0    150.0      0.0      0.0    -20.0    400.0      1.0
     333 2002 12 21 12 58 31 882 10.6404     62.96739    268.34562    114.91994    -25.00000     25.00000    -12.90624    150.0    150.0      0.0      0.0    -20.0    400.0      1.0
     334 2002 12 21 12 58 42 552 10.6699     64.67949    268.35630    114.99049    -25.00000     25.00000    -12.91311    150.0    150.0      0.0      0.0    -20.0    400.0      1.0
     335 2002 12 21 12 58 53 126 10.5741     64.53454    268.40964    115.09303    -25.00000     25.00000    -12.89604    150.0    150.0      0.0      0.0    -20.0    400.0      1.0
     336 2002 12 21 12 59  3 642 10.5163     64.44658    268.49501    115.16666    -25.00000     25.00000    -12.93854    150.0    150.0      0.0      0.0    -20.0    400.0      1.0
     337 2002 12 21 12 59 14 164 10.5216     64.33169    268.54475    115.17983    -25.00000     25.00000    -12.92986    150.0    150.0      0.0      0.0    -20.0    400.0      1.0
     338 2002 12 21 12 59 24 603 10.4391     64.14792    268.59821    115.25948    -25.00000     25.00000    -12.88610    150.0    150.0      0.0      0.0    -20.0    400.0      1.0
     339 2002 12 21 12 59 35  73 10.4703     64.59168    268.65702    115.35630    -25.00000     25.00000    -12.74447    150.0    150.0      0.0      0.0    -20.0    400.0      1.0
     340 2002 12 21 12 59 45 570 10.4967     64.73099    268.65937    115.47855    -25.00000     25.00000    -12.61601    150.0    150.0      0.0      0.0    -20.0    400.0      1.0
     341 2002 12 21 12 59 56  47 10.4769     64.90765    268.66591    115.63815    -25.00000     25.00000    -12.62125    150.0    150.0      0.0      0.0    -20.0    400.0      1.0
     342 2002 12 21 13  0  0   0  3.9524     64.73360    268.63888    115.67363    -25.00000     25.00000    -12.58434    150.0    150.0      0.0      0.0    -20.0    400.0      1.0
