   iStep yyyy mm dd hh mm ss  ms      dt min(t) max(t) min(VV) max(VV)
       2 2002 12 21  0  0  3 774  3.7742    160.72829   1313.35282   -175.25980      9.71259
       3 2002 12 21  0  0  6 643  2.8692    160.79926   1314.02716   -200.89698     11.69472
       4 2002 12 21  0  0  9 683  3.0405    160.73396   1314.85976   -222.18418     15.52041
       5 2002 12 21  0  0 12 708  3.0242    160.62702   1315.66528   -236.13515     18.84080
       6 2002 12 21  0  0 15 749  3.0413    160.56926   1316.46338   -242.80958     21.90321
       7 2002 12 21  0  0 18 730  2.9809    160.54746   1317.22886   -244.36801     24.51665
       8 2002 12 21  0  0 21 678  2.9480    160.49248   1317.98287   -245.88363     26.97884
       9 2002 12 21  0  0 24 590  2.9126    160.43020   1318.72611   -245.23662     29.31377
      10 2002 12 21  0  0 27 474  2.8831    160.38179   1319.47189   -243.43604     31.40035
      11 2002 12 21  0  0 30 332  2.8585    160.35170   1320.19778   -240.75590     33.25933
      12 2002 12 21  0  0 33 169  2.8373    160.30517   1320.91310   -237.70922     35.50991
      13 2002 12 21  0  0 35 988  2.8191    160.24907   1321.63292   -234.61782     38.08616
      14 2002 12 21  0  0 38 790  2.8019    160.20685   1322.35902   -231.56831     40.52257
      15 2002 12 21  0  0 41 579  2.7882    160.18829   1323.08874   -228.94344     42.79720
      16 2002 12 21  0  0 44 355  2.7764    160.16327   1323.82415   -226.66683     44.89543
      17 2002 12 21  0  0 47 120  2.7652    160.15630   1324.56525   -224.43785     46.80198
      18 2002 12 21  0  0 49 876  2.7558    160.15332   1325.31224   -222.27699     48.50302
      19 2002 12 21  0  0 52 623  2.7472    160.14712   1326.06424   -220.14165     50.67277
      20 2002 12 21  0  0 55 361  2.7376    160.13138   1326.82007   -217.93615     52.78310
      21 2002 12 21  0  0 58  91  2.7296    160.11491   1327.57919   -216.24558     54.79880
      22 2002 12 21  0  1  0 813  2.7223    160.10448   1328.34089   -214.65662     56.69352
      23 2002 12 21  0  1  3 527  2.7140    160.09482   1329.10373   -212.96050     58.43993
      24 2002 12 21  0  1  6 234  2.7075    160.06767   1329.86794   -211.17865     59.99940
      25 2002 12 21  0  1  8 935  2.7011    160.03705   1330.63183   -209.28782     61.34632
      26 2002 12 21  0  1 11 631  2.6956    160.00242   1331.39506   -207.31154     62.45656
      27 2002 12 21  0  1 14 322  2.6909    159.96674   1332.15737   -205.27022     63.57641
      28 2002 12 21  0  1 17   8  2.6858    159.93838   1332.91841   -203.88182     65.24061
      29 2002 12 21  0  1 19 690  2.6822    159.91392   1333.67885   -203.29232     66.82658
      30 2002 12 21  0  1 22 369  2.6789    159.88755   1334.43850   -202.95047     68.29622
      31 2002 12 21  0  1 25  44  2.6749    159.85744   1335.19727   -202.83703     69.61188
      32 2002 12 21  0  1 27 715  2.6716    159.82979   1335.95572   -203.21158     70.71977
      33 2002 12 21  0  1 30 384  2.6690    159.79919   1336.71530   -203.76220     71.58691
      34 2002 12 21  0  1 33  50  2.6659    159.76400   1337.47606   -204.35612     72.21429
      35 2002 12 21  0  1 35 712  2.6623    159.72689   1338.23839   -204.54294     73.78532
      36 2002 12 21  0  1 38 372  2.6591    159.69468   1339.00333   -204.27058     75.30339
      37 2002 12 21  0  1 41  28  2.6563    159.65838   1339.77185   -203.64070     76.71614
      38 2002 12 21  0  1 43 682  2.6541    159.61474   1340.54508   -203.26669     77.95975
      39 2002 12 21  0  1 46 334  2.6516    159.57152   1341.32368   -202.80384     78.99202
      40 2002 12 21  0  1 48 983  2.6492    159.53394   1342.10887   -201.95131     79.77190
      41 2002 12 21  0  1 51 629  2.6468    159.49512   1342.90146   -200.80868     80.94824
      42 2002 12 21  0  1 54 275  2.6452    159.44951   1343.70280   -199.39458     82.52520
      43 2002 12 21  0  1 56 918  2.6437    159.39948   1344.51329   -197.68177     84.01005
      44 2002 12 21  0  1 59 561  2.6423    159.35433   1345.33365   -195.69893     85.34087
      45 2002 12 21  0  2  2 201  2.6406    159.31674   1346.16407   -194.33812     86.46433
      46 2002 12 21  0  2  4 840  2.6390    159.28109   1347.00511   -193.15587     87.33673
      47 2002 12 21  0  2  7 478  2.6374    159.24297   1347.85816   -192.24666     88.12062
      48 2002 12 21  0  2 10 114  2.6360    159.20464   1348.72326   -192.01350     90.06575
      49 2002 12 21  0  2 12 749  2.6350    159.16910   1349.60580   -191.81035     91.87997
      50 2002 12 21  0  2 15 382  2.6337    159.14034   1350.52300   -191.60764     93.53698
      51 2002 12 21  0  2 18  15  2.6323    159.11929   1351.45049   -191.39529     95.00847
      52 2002 12 21  0  2 20 646  2.6314    159.09735   1352.39176   -191.14940     97.03973
      53 2002 12 21  0  2 23 277  2.6305    159.07126   1353.34200   -190.84024     99.25580
      54 2002 12 21  0  2 25 907  2.6301    159.04395   1354.30238   -190.49620    101.42497
      55 2002 12 21  0  2 28 536  2.6295    159.01882   1355.27259   -190.11239    103.49128
      56 2002 12 21  0  2 31 165  2.6290    158.99734   1356.25332   -189.84968    105.42403
      57 2002 12 21  0  2 33 793  2.6281    158.97835   1357.24369   -189.56027    107.19397
      58 2002 12 21  0  2 36 421  2.6272    158.96046   1358.28017   -189.24740    108.76895
      59 2002 12 21  0  2 39  47  2.6263    158.94270   1359.45311   -189.22562    111.03680
      60 2002 12 21  0  2 41 672  2.6255    158.92494   1360.63806   -189.38194    113.45627
      61 2002 12 21  0  2 44 297  2.6248    158.90816   1361.83519   -189.52174    115.81291
      62 2002 12 21  0  2 46 922  2.6244    158.89183   1363.04409   -189.65445    118.05643
      63 2002 12 21  0  2 49 545  2.6236    158.87595   1364.26355   -189.75138    120.15585
      64 2002 12 21  0  2 52 168  2.6232    158.86084   1365.49525   -189.84717    122.07608
      65 2002 12 21  0  2 54 791  2.6227    158.84676   1366.73845   -189.92897    123.83004
      66 2002 12 21  0  2 57 413  2.6219    158.83379   1367.99117   -189.99193    126.49654
      67 2002 12 21  0  3  0  34  2.6212    158.82075   1369.25187   -190.06247    129.13183
      68 2002 12 21  0  3  2 655  2.6209    158.80548   1370.52391   -190.15703    131.68087
      69 2002 12 21  0  3  5 275  2.6204    158.78892   1371.81157   -190.24402    134.10118
      70 2002 12 21  0  3  7 895  2.6199    158.77470   1373.13851   -190.31909    136.35581
      71 2002 12 21  0  3 10 515  2.6196    158.76390   1374.47727   -190.39235    138.40575
      72 2002 12 21  0  3 13 134  2.6192    158.75333   1375.82533   -190.43914    140.49828
      73 2002 12 21  0  3 15 753  2.6188    158.74223   1377.17930   -190.45406    143.38466
      74 2002 12 21  0  3 18 372  2.6186    158.73226   1378.54316   -190.45225    146.22962
      75 2002 12 21  0  3 20 990  2.6181    158.72406   1379.90793   -190.41544    148.96125
      76 2002 12 21  0  3 23 607  2.6176    158.71645   1381.26582   -190.66563    151.54221
      77 2002 12 21  0  3 26 225  2.6174    158.70928   1382.61191   -191.13691    153.93211
      78 2002 12 21  0  3 28 842  2.6175    158.70301   1383.94302   -191.61077    156.08874
      79 2002 12 21  0  3 31 459  2.6170    158.69737   1385.27228   -192.05053    158.72125
      80 2002 12 21  0  3 34  76  2.6171    158.69098   1386.55196   -192.50958    161.84944
      81 2002 12 21  0  3 36 693  2.6167    158.68362   1387.99375   -192.93081    164.90087
      82 2002 12 21  0  3 39 309  2.6165    158.67620   1389.43426   -193.35159    167.81514
      83 2002 12 21  0  3 41 926  2.6161    158.66969   1390.84795   -193.74370    170.55021
      84 2002 12 21  0  3 44 542  2.6160    158.66403   1392.23935   -194.14348    173.06170
      85 2002 12 21  0  3 47 157  2.6158    158.65829   1393.60357   -194.52249    175.30338
      86 2002 12 21  0  3 49 773  2.6158    158.65249   1394.90049   -194.89534    178.70070
      87 2002 12 21  0  3 52 389  2.6157    158.64730   1396.13703   -195.25325    182.06884
      88 2002 12 21  0  3 55   5  2.6157    158.64350   1397.55947   -195.60654    185.30843
      89 2002 12 21  0  3 57 620  2.6154    158.64056   1399.00335   -195.93531    188.37707
      90 2002 12 21  0  4  0 235  2.6152    158.63724   1400.41605   -196.25716    191.22790
      91 2002 12 21  0  4  2 851  2.6153    158.63337   1401.80027   -196.81107    193.81163
      92 2002 12 21  0  4  5 466  2.6151    158.62966   1403.08623   -197.53846    196.65358
      93 2002 12 21  0  4  8  81  2.6154    158.62644   1404.28403   -198.27034    200.27560
      94 2002 12 21  0  4 10 696  2.6152    158.62354   1405.54124   -198.95430    203.79986
      95 2002 12 21  0  4 13 311  2.6151    158.62083   1407.01158   -199.61929    207.15918
      96 2002 12 21  0  4 15 927  2.6151    158.61836   1408.43169   -200.28062    210.30589
      97 2002 12 21  0  4 18 542  2.6150    158.61609   1409.81719   -200.92329    213.18762
      98 2002 12 21  0  4 21 156  2.6150    158.61367   1411.08159   -201.55837    215.75055
      99 2002 12 21  0  4 23 771  2.6149    158.61105   1412.22874   -202.17965    219.14492
     100 2002 12 21  0  4 26 386  2.6145    158.60831   1413.68410   -202.77720    222.91256
     101 2002 12 21  0  4 29   0  2.6144    158.60546   1415.19007   -203.36974    226.52150
     102 2002 12 21  0  4 31 615  2.6146    158.60253   1416.68681   -203.97262    229.92410
     103 2002 12 21  0  4 34 229  2.6143    158.59967   1418.06852   -204.53231    233.06514
     104 2002 12 21  0  4 36 844  2.6144    158.59709   1419.29255   -205.09765    235.88764
     105 2002 12 21  0  4 39 458  2.6143    158.59496   1420.80959   -205.64290    238.45050
     106 2002 12 21  0  4 42  72  2.6140    158.59326   1422.46847   -206.16472    242.39570
     107 2002 12 21  0  4 44 686  2.6145    158.59179   1424.07723   -206.72188    246.22218
     108 2002 12 21  0  4 47 301  2.6144    158.59041   1425.80315   -207.23297    249.84560
     109 2002 12 21  0  4 49 915  2.6146    158.58888   1428.02091   -207.74614    253.21083
     110 2002 12 21  0  4 52 530  2.6147    158.58716   1429.94620   -208.24830    256.25687
     111 2002 12 21  0  4 55 145  2.6150    158.58528   1431.57419   -208.74455    258.92072
     112 2002 12 21  0  4 57 760  2.6152    158.58350   1432.57416   -209.22026    262.08939
     113 2002 12 21  0  5  0   0  2.2394    158.58388   1432.13302   -199.89058    265.50861
