GITM2 log file
   iStep yyyy mm dd hh mm ss  ms      dt min(T) max(T) mean(T) min(VV) max(VV) mean(VV)
       2 2002 12 21  0  0  3 774  3.7742    161.02361   1313.02937    974.89958    -71.27597    981.41166      3.40442
       3 2002 12 21  0  0  7 490  3.7164    161.12393   1312.95028    975.04519   -110.54280    981.68145      6.28031
       4 2002 12 21  0  0 11 203  3.7131    161.16972   1312.83296    975.16823   -134.83994    981.69398      8.75031
       5 2002 12 21  0  0 14 922  3.7191    161.18401   1312.71611    975.27676   -151.04339    981.65504     10.88797
       6 2002 12 21  0  0 18 632  3.7098    161.21258   1312.60859    975.37343   -160.29018    981.70105     13.27966
       7 2002 12 21  0  0 22 334  3.7017    161.24301   1312.52925    975.46158   -164.82820    981.73474     15.80047
       8 2002 12 21  0  0 26  31  3.6975    161.25264   1312.53789    975.54359   -169.45407    986.30983     18.01001
       9 2002 12 21  0  0 29 732  3.7012    161.27386   1312.55615    975.62085   -184.31581    986.29615     19.83493
      10 2002 12 21  0  0 33 442  3.7096    161.29795   1312.57371    975.69437   -195.58550    986.26069     21.90139
      11 2002 12 21  0  0 37 162  3.7198    161.30044   1312.59788    975.76496   -203.63661    989.72592     24.38111
      12 2002 12 21  0  0 40 884  3.7218    161.30231   1312.61340    975.83337   -208.84107    989.72087     26.33114
      13 2002 12 21  0  0 44 606  3.7220    161.29859   1312.62730    975.89995   -211.58414    989.72114     28.10253
      14 2002 12 21  0  0 48 325  3.7193    161.28923   1312.64242    975.96484   -212.22038    989.72812     30.06997
      15 2002 12 21  0  0 52  47  3.7222    161.29037   1312.65728    976.02874   -211.06711    992.41615     32.17364
      16 2002 12 21  0  0 55 765  3.7179    161.31440   1312.67899    976.09199   -208.39933    992.41884     33.79375
      17 2002 12 21  0  0 59 489  3.7241    161.33456   1312.74029    976.15477   -205.25690    992.39796     35.45195
      18 2002 12 21  0  1  3 214  3.7242    161.37240   1312.80957    976.21689   -200.30288    994.41545     37.33875
      19 2002 12 21  0  1  6 938  3.7240    161.40741   1312.89031    976.27893   -193.66849    994.52159     38.95475
      20 2002 12 21  0  1 10 664  3.7266    161.39221   1312.98191    976.34162   -186.68656    994.52062     40.36598
      21 2002 12 21  0  1 14 383  3.7188    161.38409   1313.08224    976.40456   -179.26526    994.53214     41.91413
      22 2002 12 21  0  1 18 100  3.7169    161.39151   1313.19471    976.46797   -171.25050    996.05909     43.53171
      23 2002 12 21  0  1 21 824  3.7239    161.38399   1313.32210    976.53249   -162.67976    996.04865     44.75073
      24 2002 12 21  0  1 25 541  3.7177    161.38099   1313.46554    976.59832   -153.61605    996.05466     46.02014
      25 2002 12 21  0  1 29 254  3.7121    161.40794   1313.62683    976.66521   -146.02350    996.83468     47.47071
      26 2002 12 21  0  1 32 973  3.7190    161.41741   1313.80806    976.73369   -143.56570    997.15660     48.61759
      27 2002 12 21  0  1 36 691  3.7187    161.41344   1314.02750    976.80400   -141.87592    997.15688     49.61660
      28 2002 12 21  0  1 40 403  3.7120    161.41766   1314.29454    976.87649   -141.41650    997.16245     50.76569
      29 2002 12 21  0  1 44 111  3.7076    161.41273   1314.57064    976.95068   -141.38230    997.95282     51.93446
      30 2002 12 21  0  1 47 822  3.7111    161.40251   1314.84748    977.02691   -141.31830    997.95116     52.69931
      31 2002 12 21  0  1 51 535  3.7128    161.39049   1315.11557    977.10543   -141.17838    997.95085     53.55339
      32 2002 12 21  0  1 55 241  3.7064    161.38309   1315.37824    977.18643   -140.95542    998.28088     54.58863
      33 2002 12 21  0  1 58 944  3.7032    161.39009   1315.62681    977.26930   -140.71320    998.52193     55.30333
      34 2002 12 21  0  2  2 652  3.7074    161.39223   1315.90601    977.35432   -140.94676    998.52061     55.86283
      35 2002 12 21  0  2  6 363  3.7109    161.39232   1316.17585    977.44165   -141.17742    998.51987     56.58398
      36 2002 12 21  0  2 10  71  3.7080    161.38148   1316.44642    977.53120   -141.35429    998.92704     57.30022
      37 2002 12 21  0  2 13 771  3.7003    161.37166   1316.70570    977.62197   -141.44771    998.92976     57.67841
      38 2002 12 21  0  2 17 476  3.7046    161.36698   1316.95573    977.71420   -141.45086    998.92890     58.08540
      39 2002 12 21  0  2 21 186  3.7108    161.37344   1317.20103    977.80792   -141.77989    999.09025     58.65337
      40 2002 12 21  0  2 24 898  3.7118    161.37682   1317.44137    977.90302   -142.27189    999.21957     58.94391
      41 2002 12 21  0  2 28 606  3.7074    161.35953   1317.70833    977.99854   -142.75629    999.22085     59.11939
      42 2002 12 21  0  2 32 307  3.7013    161.33845   1317.97487    978.09411   -143.21334    999.22248     59.37626
      43 2002 12 21  0  2 36  11  3.7043    161.32093   1318.24884    978.19003   -143.84622    999.43143     59.58271
      44 2002 12 21  0  2 39 721  3.7099    161.33353   1318.51253    978.28640   -144.77388    999.43099     59.57250
      45 2002 12 21  0  2 43 432  3.7104    161.36251   1318.77244    978.38234   -145.99136    999.43142     59.57022
      46 2002 12 21  0  2 47 136  3.7042    161.38640   1319.02721    978.47736   -147.14023    999.49968     59.61019
      47 2002 12 21  0  2 50 837  3.7016    161.36639   1319.27748    978.57156   -148.24054    999.58371     59.42826
      48 2002 12 21  0  2 54 538  3.7005    161.33667   1319.53415    978.66509   -149.30843    999.58389     59.19827
      49 2002 12 21  0  2 58 245  3.7066    161.32358   1319.79609    978.75778   -150.77420    999.58365     59.01039
      50 2002 12 21  0  3  1 956  3.7120    161.32564   1320.07145    978.84923   -152.21518    999.69262     58.68884
      51 2002 12 21  0  3  5 668  3.7113    161.33119   1320.36731    978.93946   -153.59901    999.69298     58.24211
      52 2002 12 21  0  3  9 376  3.7081    161.33459   1320.68079    979.02864   -155.03013    999.69349     57.81685
      53 2002 12 21  0  3 13  77  3.7015    161.33897   1321.00705    979.11641   -156.58020    999.72062     57.37400
      54 2002 12 21  0  3 16 776  3.6987    161.34633   1321.33911    979.20253   -158.53717    999.77338     56.73685
      55 2002 12 21  0  3 20 481  3.7051    161.36265   1321.70938    979.28763   -160.68205    999.77317     56.06210
      56 2002 12 21  0  3 24 195  3.7137    161.37068   1322.09709    979.37215   -162.73667    999.77296     55.39325
      57 2002 12 21  0  3 27 901  3.7058    161.35968   1322.49806    979.45560   -164.73161    999.83110     54.57653
      58 2002 12 21  0  3 31 600  3.6999    161.34782   1322.90617    979.53763   -166.70371    999.83150     53.61750
      59 2002 12 21  0  3 35 304  3.7031    161.33605   1323.31423    979.61891   -168.81754    999.83151     52.60631
      60 2002 12 21  0  3 39  19  3.7153    161.34654   1323.73204    979.70013   -171.47571    999.83113     51.50807
      61 2002 12 21  0  3 42 729  3.7099    161.36190   1324.15341    979.78096   -174.01053    999.87325     50.25761
      62 2002 12 21  0  3 46 431  3.7022    161.37112   1324.58254    979.86105   -176.46191    999.87362     48.93628
      63 2002 12 21  0  3 50 124  3.6932    161.35741   1325.01875    979.94062   -179.87473    999.87407     47.58599
      64 2002 12 21  0  3 53 822  3.6978    161.35098   1325.45850    980.02066   -188.10163    999.90446     46.17050
      65 2002 12 21  0  3 57 526  3.7035    161.36662   1325.89622    980.10135   -196.16735    999.90440     44.73842
      66 2002 12 21  0  4  1 236  3.7104    161.39338   1326.32550    980.18247   -204.08109    999.90432     43.29573
      67 2002 12 21  0  4  4 944  3.7076    161.38321   1326.73614    980.26387   -212.47648    999.92686     41.79422
      68 2002 12 21  0  4  8 640  3.6968    161.36340   1327.21092    980.34589   -222.69121    999.92716     40.26510
      69 2002 12 21  0  4 12 326  3.6854    161.34426   1327.68427    980.42860   -232.84579    999.92748     38.68773
      70 2002 12 21  0  4 16  19  3.6932    161.33991   1328.14845    980.51237   -242.86084    999.92741     37.04978
      71 2002 12 21  0  4 19 710  3.6916    161.34536   1328.59231    980.59674   -252.70356    999.93681     35.35457
      72 2002 12 21  0  4 23 412  3.7018    161.35185   1329.00491    980.68247   -262.40442    999.93671     33.62403
      73 2002 12 21  0  4 27 104  3.6917    161.35028   1329.53697    980.76895   -271.91360    999.93696     31.87523
      74 2002 12 21  0  4 30 800  3.6958    161.35123   1330.06135    980.85641   -281.27222    999.93699     30.13261
      75 2002 12 21  0  4 34 476  3.6764    161.35784   1330.58502    980.94381   -291.66768    999.93742     28.42679
      76 2002 12 21  0  4 38 152  3.6763    161.34932   1331.19387    981.03196   -303.32042    999.93751     26.78332
      77 2002 12 21  0  4 41 833  3.6809    161.33998   1331.78481    981.12081   -314.96703    999.93752     25.14769
      78 2002 12 21  0  4 45 517  3.6833    161.34143   1332.42522    981.20997   -326.55205    999.94461     23.36947
      79 2002 12 21  0  4 49 192  3.6751    161.35364   1333.10325    981.29894   -337.95732    999.94480     21.48655
      80 2002 12 21  0  4 52 892  3.7002    161.36207   1333.76121    981.38909   -349.27418    999.94452     19.51130
      81 2002 12 21  0  4 56 581  3.6891    161.35054   1334.49513    981.47914   -360.39086    999.94479     17.47858
      82 2002 12 21  0  5  0   0  3.4185    161.33705   1335.10400    981.56036   -370.54486    999.94893     15.61098
