   iStep yyyy mm dd hh mm ss  ms      dt min(t) max(t) min(VV) max(VV)
       2 2002 12 21  0  0  3 774  3.7742    160.72829   1313.35244   -175.25847      9.71259
       3 2002 12 21  0  0  6 643  2.8692    160.79926   1313.99508   -200.89769     11.69540
       4 2002 12 21  0  0  9 683  3.0405    160.73396   1314.79382   -222.18418     15.52169
       5 2002 12 21  0  0 12 708  3.0241    160.62703   1315.56537   -236.13342     18.84404
       6 2002 12 21  0  0 15 750  3.0420    160.56918   1316.32965   -242.82306     21.90961
       7 2002 12 21  0  0 18 732  2.9822    160.54738   1317.06215   -244.39779     24.52662
       8 2002 12 21  0  0 21 680  2.9486    160.49231   1317.78283   -245.90572     27.00248
       9 2002 12 21  0  0 24 594  2.9137    160.43006   1318.49322   -245.26236     29.34174
      10 2002 12 21  0  0 27 478  2.8844    160.38162   1319.20628   -243.46546     31.43253
      11 2002 12 21  0  0 30 338  2.8595    160.35148   1319.89950   -240.78413     33.29546
      12 2002 12 21  0  0 33 177  2.8387    160.30484   1320.58258   -237.74058     35.45692
      13 2002 12 21  0  0 35 997  2.8208    160.24865   1321.27069   -234.65298     38.02556
      14 2002 12 21  0  0 38 801  2.8034    160.20639   1321.96479   -231.60324     40.45304
      15 2002 12 21  0  0 41 590  2.7895    160.18779   1322.66245   -228.98770     42.71764
      16 2002 12 21  0  0 44 368  2.7774    160.16269   1323.36579   -226.70283     44.80483
      17 2002 12 21  0  0 47 134  2.7658    160.15579   1324.07480   -224.46453     46.69945
      18 2002 12 21  0  0 49 889  2.7554    160.15276   1324.78939   -222.28414     48.40609
      19 2002 12 21  0  0 52 636  2.7465    160.14633   1325.50926   -220.13262     50.57712
      20 2002 12 21  0  0 55 374  2.7383    160.13063   1326.23330   -217.93705     52.67799
      21 2002 12 21  0  0 58 104  2.7301    160.11418   1326.96041   -216.25719     54.68272
      22 2002 12 21  0  1  0 827  2.7228    160.10377   1327.69003   -214.67166     56.56521
      23 2002 12 21  0  1  3 542  2.7150    160.09415   1328.42101   -212.98524     58.29810
      24 2002 12 21  0  1  6 250  2.7085    160.06733   1329.15365   -211.20791     59.84290
      25 2002 12 21  0  1  8 952  2.7021    160.03679   1329.88588   -209.31681     61.17408
      26 2002 12 21  0  1 11 649  2.6967    160.00221   1330.61736   -207.34173     62.26766
      27 2002 12 21  0  1 14 340  2.6910    159.96633   1331.34743   -205.28188     63.41225
      28 2002 12 21  0  1 17  27  2.6865    159.93796   1332.07624   -203.91078     65.06574
      29 2002 12 21  0  1 19 709  2.6825    159.91364   1332.80378   -203.31116     66.63891
      30 2002 12 21  0  1 22 387  2.6779    159.88742   1333.53031   -202.93056     68.09341
      31 2002 12 21  0  1 25  62  2.6748    159.85726   1334.25720   -202.82314     69.39237
      32 2002 12 21  0  1 27 733  2.6714    159.82976   1334.98399   -203.19537     70.48246
      33 2002 12 21  0  1 30 402  2.6688    159.79939   1335.71142   -203.75446     71.33090
      34 2002 12 21  0  1 33  68  2.6656    159.76437   1336.43946   -204.34413     71.98854
      35 2002 12 21  0  1 35 730  2.6624    159.72732   1337.17545   -204.53863     73.54771
      36 2002 12 21  0  1 38 389  2.6591    159.69515   1337.92038   -204.26072     75.05186
      37 2002 12 21  0  1 41  46  2.6569    159.65883   1338.66521   -203.65077     76.44852
      38 2002 12 21  0  1 43 700  2.6544    159.61520   1339.41002   -203.27746     77.67448
      39 2002 12 21  0  1 46 352  2.6521    159.57204   1340.15555   -202.81799     78.68800
      40 2002 12 21  0  1 49   2  2.6497    159.53447   1340.90241   -201.96537     79.44806
      41 2002 12 21  0  1 51 649  2.6472    159.49560   1341.65113   -200.81810     80.65870
      42 2002 12 21  0  1 54 295  2.6455    159.44985   1342.40317   -199.39738     82.22267
      43 2002 12 21  0  1 56 939  2.6439    159.39970   1343.17523   -197.67720     83.69243
      44 2002 12 21  0  1 59 581  2.6422    159.35452   1343.96142   -195.68204     85.00535
      45 2002 12 21  0  2  2 221  2.6402    159.31690   1344.75750   -194.31079     86.10954
      46 2002 12 21  0  2  4 860  2.6383    159.28119   1345.56393   -193.11442     86.96150
      47 2002 12 21  0  2  7 496  2.6367    159.24295   1346.38196   -192.21867     87.51983
      48 2002 12 21  0  2 10 132  2.6354    159.20452   1347.21177   -191.98522     88.14556
      49 2002 12 21  0  2 12 766  2.6345    159.16896   1348.05346   -191.78416     89.55346
      50 2002 12 21  0  2 15 399  2.6332    159.14025   1348.90709   -191.58770     90.86780
      51 2002 12 21  0  2 18  31  2.6320    159.11925   1349.77291   -191.38590     92.03089
      52 2002 12 21  0  2 20 663  2.6312    159.09733   1350.67431   -191.14684     92.97129
      53 2002 12 21  0  2 23 293  2.6304    159.07124   1351.58707   -190.84563     93.64423
      54 2002 12 21  0  2 25 923  2.6300    159.04390   1352.51006   -190.50167     94.21740
      55 2002 12 21  0  2 28 552  2.6291    159.01876   1353.44236   -190.10608     94.75247
      56 2002 12 21  0  2 31 181  2.6285    158.99732   1354.38482   -189.82876     96.06297
      57 2002 12 21  0  2 33 808  2.6272    158.97836   1355.33588   -189.52540     97.37816
      58 2002 12 21  0  2 36 434  2.6264    158.96047   1356.29385   -189.20768     98.51079
      59 2002 12 21  0  2 39  60  2.6254    158.94265   1357.26136   -189.19005     99.49874
      60 2002 12 21  0  2 41 684  2.6246    158.92481   1358.24029   -189.34793    101.06720
      61 2002 12 21  0  2 44 308  2.6240    158.90789   1359.23090   -189.49075    103.16702
      62 2002 12 21  0  2 46 932  2.6235    158.89146   1360.23346   -189.62143    105.20325
      63 2002 12 21  0  2 49 555  2.6230    158.87545   1361.24789   -189.73268    107.13277
      64 2002 12 21  0  2 52 177  2.6225    158.86032   1362.27575   -189.82516    108.92303
      65 2002 12 21  0  2 54 799  2.6221    158.84621   1363.31762   -189.90940    110.53987
      66 2002 12 21  0  2 57 421  2.6218    158.83321   1364.37125   -190.00039    111.96150
      67 2002 12 21  0  3  0  42  2.6211    158.82021   1365.44437   -190.07120    114.29350
      68 2002 12 21  0  3  2 663  2.6208    158.80497   1366.54116   -190.16415    116.59877
      69 2002 12 21  0  3  5 283  2.6204    158.78838   1367.74387   -190.25286    118.82496
      70 2002 12 21  0  3  7 904  2.6204    158.77402   1368.98851   -190.35739    120.93077
      71 2002 12 21  0  3 10 524  2.6202    158.76324   1370.27206   -190.44063    122.88073
      72 2002 12 21  0  3 13 144  2.6200    158.75279   1371.57936   -190.49768    124.63800
      73 2002 12 21  0  3 15 764  2.6195    158.74174   1372.89517   -190.50776    126.23704
      74 2002 12 21  0  3 18 383  2.6190    158.73174   1374.21954   -190.49272    128.77578
      75 2002 12 21  0  3 21   2  2.6189    158.72347   1375.55249   -190.46726    131.28167
      76 2002 12 21  0  3 23 620  2.6186    158.71583   1376.88377   -190.72342    133.69368
      77 2002 12 21  0  3 26 239  2.6184    158.70870   1378.20653   -191.19494    135.97001
      78 2002 12 21  0  3 28 857  2.6183    158.70246   1379.51570   -191.66405    138.07279
      79 2002 12 21  0  3 31 475  2.6181    158.69688   1380.81869   -192.11554    139.96213
      80 2002 12 21  0  3 34  93  2.6178    158.69056   1382.09538   -192.55574    141.88738
      81 2002 12 21  0  3 36 711  2.6177    158.68328   1383.35692   -192.99146    144.65783
      82 2002 12 21  0  3 39 328  2.6175    158.67594   1384.77539   -193.41190    147.38261
      83 2002 12 21  0  3 41 945  2.6172    158.66953   1386.17402   -193.81364    149.99017
      84 2002 12 21  0  3 44 562  2.6167    158.66394   1387.54352   -194.18690    152.44231
      85 2002 12 21  0  3 47 178  2.6163    158.65821   1388.90087   -194.54987    154.69781
      86 2002 12 21  0  3 49 794  2.6158    158.65232   1390.20069   -194.89793    156.71394
      87 2002 12 21  0  3 52 410  2.6157    158.64698   1391.43861   -195.24975    159.14018
      88 2002 12 21  0  3 55  25  2.6152    158.64307   1392.64631   -195.57593    162.15033
      89 2002 12 21  0  3 57 640  2.6150    158.64012   1394.08684   -195.90576    165.08076
      90 2002 12 21  0  4  0 255  2.6152    158.63686   1395.48125   -196.25116    167.87093
      91 2002 12 21  0  4  2 870  2.6151    158.63303   1396.85628   -196.80081    170.47863
      92 2002 12 21  0  4  5 485  2.6148    158.62931   1398.16716   -197.52127    172.85833
      93 2002 12 21  0  4  8 100  2.6153    158.62614   1399.38464   -198.26306    174.96431
      94 2002 12 21  0  4 10 716  2.6153    158.62330   1400.51685   -198.96126    177.82226
      95 2002 12 21  0  4 13 331  2.6153    158.62064   1401.86792   -199.64036    181.03341
      96 2002 12 21  0  4 15 946  2.6153    158.61821   1403.28174   -200.30002    184.12626
      97 2002 12 21  0  4 18 562  2.6153    158.61596   1404.67022   -200.94570    187.04922
      98 2002 12 21  0  4 21 177  2.6153    158.61357   1405.97400   -201.58655    189.75630
      99 2002 12 21  0  4 23 792  2.6153    158.61095   1407.15911   -202.21514    192.19827
     100 2002 12 21  0  4 26 407  2.6151    158.60821   1408.30493   -202.81854    194.32499
     101 2002 12 21  0  4 29  22  2.6149    158.60539   1409.83825   -203.41328    197.51648
     102 2002 12 21  0  4 31 637  2.6152    158.60246   1411.30333   -204.01796    200.87589
     103 2002 12 21  0  4 34 252  2.6149    158.59958   1412.82995   -204.57845    204.07825
     104 2002 12 21  0  4 36 867  2.6151    158.59696   1414.93492   -205.15004    207.07828
     105 2002 12 21  0  4 39 483  2.6151    158.59480   1416.81703   -205.70810    209.82503
     106 2002 12 21  0  4 42  98  2.6149    158.59308   1418.30934   -206.23521    212.26467
     107 2002 12 21  0  4 44 713  2.6152    158.59160   1419.41921   -206.77706    214.39972
     108 2002 12 21  0  4 47 328  2.6149    158.59017   1421.81415   -207.27383    217.95622
     109 2002 12 21  0  4 49 943  2.6152    158.58863   1424.02741   -207.79552    221.40914
     110 2002 12 21  0  4 52 558  2.6151    158.58695   1425.95331   -208.28058    224.67095
     111 2002 12 21  0  4 55 173  2.6152    158.58511   1427.61686   -208.76504    227.69078
     112 2002 12 21  0  4 57 788  2.6150    158.58332   1428.67385   -209.21645    230.41223
     113 2002 12 21  0  5  0   0  2.2115    158.58386   1427.84623   -201.56537    232.40938
